ID	Condition	sentence	noun_transparency	noun	Trial_Index_	RT	Accuracy
A13	PD_C4	Dice que la mochila rallada contiene nuestras cosas	transp	mochila	1	5174	1
A13	D07_C3	Descubre que el borrador bueno vale menos dinero.	opaq	borrador	2	2787	1
A13	D26_C4	Piensa que su religi—n estricta molesta al joven.	opaq	religi—n	3	2886	0
A13	D11_C3	Indica que el hospital peque–o contrata a estudiantes.	opaq	hospital	4	3447	1
A13	D17_C1	Sugiere que el anillo rojo llama la atenci—n.	transp	anillo	5	2789	1
A13	D15_C3	Explica que el cintur—n mediano resulta m‡s pr‡ctico.	opaq	cintur—n	6	3226	1
A13	D29_C1	Cuenta que el cuadro famoso representa su vida.	transp	cuadro	7	3852	1
A13	D09_C1	Declara que el carro antiguo contamina el ambiente.	transp	carro	8	4467	1
A13	D22_C4	Dice que su naci—n limpia recibe m‡s turistas.	opaq	naci—n	9	6400	1
A13	D16_C2	Aclara que su escuela pœbica trae problemas.	transp	escuea	10	3032	1
A13	D01_C1	Dice que el colegio nuevo cuesta mucho dinero.	transp	colegio	11	2867	1
A13	D18_C4	Manifiesta que su mansi—n preciosa sorprende al hombre.	opaq	mansi—n	12	3051	0
A13	D31_C3	Menciona que el ma’z morado lidera las ventas.	opaq	ma’z	13	3130	1
A13	D20_C2	Sostiene que su taberna oscura necesita m‡s luz.	transp	taberna	14	3436	1
A13	D12_C2	Aclara que su palabra secreta resuelve el misterio.	transp	palabra	15	2273	1
A13	D10_C4	Menciona que su nariz dorada causa sorpresa.	opaq	nariz	16	3948	0
A13	D25_C1	Comenta que el suelo blanco demanda mucho cuidado.	transp	suelo	17	3411	1
A13	D06_C4	Piensa que su crisis larga produce insomnio.	opaq	crisis	18	4175	0
A13	D08_C2	Cuenta que su planta bonita gana el concurso.	transp	planta	19	4291	1
A13	D02_C4	Avisa de que su conexi—n moderna repara el sistema.	opaq	conexi—n	20	4483	0
A13	D21_C1	Demuestra que el zapato caro resiste la lluvia.	transp	zapato	21	4012	1
A13	D28_C2	Opina que su novela tr‡gica divide al pueblo.	transp	novela	22	4439	1
A13	D03_C3	Cree que el pastel t’pico lleva demasiados ingredientes.	opaq	pastel	23	3526	1
A13	D14_C4	Se–ala que su lecci—n perfecta requiere preparaci—n.	opaq	lecci—n	24	3334	0
A13	D23_C3	Avisa de que el metal sagrado tiene poderes m‡gicos.	opaq	metal	25	5014	1
A13	D19_C3	Descubre que el paraguas barato soporta la lluvia.	opaq	paraguas	26	5741	1
A13	D13_C1	Opina que el cuero negro cautiva al cliente.	transp	cuero	27	3539	1
A13	D30_C4	Declara que su tradici—n rara confunde al rey.	opaq	tradici—n	28	3922	0
A13	D32_C2	Indica que su revista c—mica divierte a todos.	transp	revista	29	4225	1
A13	D24_C2	Cree que su cena mala decepciona al padre.	transp	cena	30	3854	1
A13	D04_C2	Comenta que su silla rosada mejora la sala.	transp	silla	31	5149	1
A13	D27_C3	Anuncia que el jard’n sucio disgusta al invitado.	opaq	jard’n	32	5132	1
A13	D05_C1	Anuncia que el palo roto crea m‡s basura.	transp	palo	33	3164	1
A16	PD_C4	Dice que la mochila rallada contiene nuestras cosas	transp	mochila	1	14054	1
A16	D20_C1	Sostiene que la taberna oscura necesita m‡s luz.	transp	taberna	2	3902	0
A16	D16_C1	Aclara que la escuela pœblica trae problemas.	transp	escuela	3	2854	1
A16	D25_C4	Comenta que su sill—n blanco demanda mucho cuidado.	opaq	sill—n	4	3722	0
A16	D21_C4	Demuestra que su malet’n caro resiste la lluvia.	opaq	malet’n	5	2903	1
A16	D14_C3	Se–ala que la lecci—n perfecta requiere preparaci—n.	opaq	lecci—n	6	3412	1
A16	D29_C4	Cuenta que su lugar famoso representa su vida.	opaq	lugar	7	2557	0
A16	D04_C1	Comenta que la silla rosada mejora la sala.	transp	silla	8	1725	1
A16	D10_C3	Menciona que la nariz dorada causa sorpresa.	opaq	nariz	9	2978	1
A16	D26_C3	Piensa que la religi—n estricta molesta al joven.	opaq	religi—n	10	4693	0
A16	D22_C3	Dice que la naci—n limpia recibe m‡s turistas.	opaq	naci—n	11	3354	1
A16	D18_C3	Manifiesta que la mansi—n preciosa sorprende al hombre.	opaq	mansi—n	12	3308	1
A16	D11_C2	Indica que su mercado peque–o contrata a estudiantes.	transp	mercado	13	3401	1
A16	D30_C3	Declara que la tradici—n rara confunde al rey.	opaq	tradici—n	14	2788	1
A16	D07_C2	Descubre que su teclado bueno vale menos dinero.	transp	teclado	15	2902	1
A16	D13_C4	Opina que su collar negro cautiva al cliente.	opaq	collar	16	2681	0
A16	D08_C1	Cuenta que la planta bonita gana el concurso.	transp	planta	17	2937	1
A16	D24_C1	Cree que la cena mala decepciona al padre.	transp	cena	18	2625	1
A16	D23_C2	Avisa de que su templo sagrado tiene poderes m‡gicos.	transp	templo	19	3210	1
A16	D05_C4	Anuncia que su cristal roto crea m‡s basura.	opaq	cristal	20	2790	0
A16	D12_C1	Aclara que la palabra secreta resuelve el misterio.	transp	palabra	21	1601	1
A16	D28_C1	Opina que la novela tr‡gica divide al pueblo.	transp	novela	22	2987	1
A16	D27_C2	Anuncia que su vaso sucio disgusta al invitado.	transp	vaso	23	3166	1
A16	D19_C2	Descubre que su sombrero barato soporta la lluvia.	transp	sombrero	24	2026	1
A16	D09_C4	Declara que su cami—n antiguo contamina el ambiente.	opaq	cami—n	25	5935	0
A16	D32_C1	Indica que la revista c—mica divierte a todos.	transp	revista	26	3590	1
A16	D02_C3	Avisa de que la conexi—n moderna repara el sistema.	opaq	conexi—n	27	3006	1
A16	D03_C2	Cree que su plato t’pico lleva demasiados ingredientes.	transp	plato	28	1501	1
A16	D17_C4	Sugiere que su pantal—n rojo llama la atenci—n.	opaq	pantal—n	29	1758	0
A16	D31_C2	Menciona que su bolso morado lidera las ventas.	transp	bolso	30	2988	1
A16	D15_C2	Explica que su tama–o mediano resulta m‡s pr‡ctico.	transp	tama–o	31	2934	1
A16	D01_C4	Dice que su proyector nuevo cuesta mucho dinero.	opaq	proyector	32	1747	0
A16	D06_C3	Piensa que la crisis larga produce insomnio.	opaq	crisis	33	1639	1
A19	PD_C4	Dice que la mochila rallada contiene nuestras cosas	transp	mochila	1	7703	1
A19	D13_C3	Opina que el collar negro cautiva al cliente.	opaq	collar	2	1670	1
A19	D31_C1	Menciona que el bolso morado lidera las ventas.	transp	bolso	3	2141	1
A19	D28_C4	Opina que su situaci—n tr‡gica divide al pueblo.	opaq	situaci—n	4	2959	1
A19	D29_C3	Cuenta que el lugar famoso representa su vida.	opaq	lugar	5	1887	0
A19	D07_C1	Descubre que el teclado bueno vale menos dinero.	transp	teclado	6	3625	0
A19	D20_C4	Sostiene que su estaci—n oscura necesita m‡s luz.	opaq	estaci—n	7	3389	1
A19	D24_C4	Cree que su acci—n mala decepciona al padre.	opaq	acci—n	8	2803	1
A19	D19_C1	Descubre que el sombrero barato soporta la lluvia.	transp	sombrero	9	2922	1
A19	D21_C3	Demuestra que el malet’n caro resiste la lluvia.	opaq	malet’n	10	2914	1
A19	D05_C3	Anuncia que el cristal roto crea m‡s basura.	opaq	cristal	11	2561	1
A19	D11_C1	Indica que el mercado peque–o contrata a estudiantes.	transp	mercado	12	3581	1
A19	D16_C4	Aclara que su opini—n pœblica trae problemas.	opaq	opini—n	13	2808	1
A19	D12_C4	Aclara que su imagen secreta resuelve el misterio.	opaq	imagen	14	2889	1
A19	D01_C3	Dice que el proyector nuevo cuesta mucho dinero.	opaq	proyector	15	2769	1
A19	D18_C2	Manifiesta que su piedra preciosa sorprende al hombre.	transp	piedra	16	2928	1
A19	D25_C3	Comenta que el sill—n blanco demanda mucho cuidado.	opaq	sill—n	17	3149	1
A19	D04_C4	Comenta que su pared rosada mejora la sala.	opaq	pared	18	2735	1
A19	D14_C2	Se–ala que su fiesta perfecta requiere preparaci—n.	transp	fiesta	19	3467	1
A19	D26_C2	Piensa que su iglesia estricta molesta al joven.	transp	iglesia	20	2968	1
A19	D23_C1	Avisa de que el templo sagrado tiene poderes m‡gicos.	transp	templo	21	4814	1
A19	D27_C1	Anuncia que el vaso sucio disgusta al invitado.	transp	vaso	22	2845	1
A19	D30_C2	Declara que su l‡mpara rara confunde al rey.	transp	l‡mpara	23	2359	1
A19	D32_C4	Indica que su reuni—n c—mica divierte a todos.	opaq	reuni—n	24	2442	1
A19	D03_C1	Cree que el plato t’pico lleva demasiados ingredientes.	transp	plato	25	3131	1
A19	D06_C2	Piensa que su charla larga produce insomnio.	transp	charla	26	2299	1
A19	D08_C4	Cuenta que su canci—n bonita gana el concurso.	opaq	canci—n	27	3162	1
A19	D02_C2	Avisa de que su m‡quina moderna repara el sistema.	transp	m‡quina	28	2826	1
A19	D17_C3	Sugiere que el pantal—n rojo llama la atenci—n.	opaq	pantal—n	29	2708	1
A19	D10_C2	Menciona que su falda dorada causa sorpresa.	transp	falda	30	3035	1
A19	D15_C1	Explica que el tama–o mediano resulta m‡s pr‡ctico.	transp	tama–o	31	2874	1
A19	D22_C2	Dice que su sala limpia recibe m‡s turistas.	transp	sala	32	3341	1
A19	D09_C3	Declara que el cami—n antiguo contamina el ambiente.	opaq	cami—n	33	3329	1
A24	PD_C4	Dice que la mochila rallada contiene nuestras cosas	transp	mochila	1	14994	1
A24	D16_C1	Aclara que la escuela pœblica trae problemas.	transp	escuela	2	2867	1
A24	D31_C2	Menciona que su bolso morado lidera las ventas.	transp	bolso	3	2930	1
A24	D05_C4	Anuncia que su cristal roto crea m‡s basura.	opaq	cristal	4	2642	0
A24	D24_C1	Cree que la cena mala decepciona al padre.	transp	cena	5	2473	1
A24	D09_C4	Declara que su cami—n antiguo contamina el ambiente.	opaq	cami—n	6	3556	0
A24	D10_C3	Menciona que la nariz dorada causa sorpresa.	opaq	nariz	7	2702	1
A24	D04_C1	Comenta que la silla rosada mejora la sala.	transp	silla	8	2628	1
A24	D27_C2	Anuncia que su vaso sucio disgusta al invitado.	transp	vaso	9	3391	1
A24	D14_C3	Se–ala que la lecci—n perfecta requiere preparaci—n.	opaq	lecci—n	10	2794	1
A24	D23_C2	Avisa de que su templo sagrado tiene poderes m‡gicos.	transp	templo	11	2911	1
A24	D19_C2	Descubre que su sombrero barato soporta la lluvia.	transp	sombrero	12	3474	1
A24	D25_C4	Comenta que su sill—n blanco demanda mucho cuidado.	opaq	sill—n	13	2980	0
A24	D15_C2	Explica que su tama–o mediano resulta m‡s pr‡ctico.	transp	tama–o	14	2777	0
A24	D06_C3	Piensa que la crisis larga produce insomnio.	opaq	crisis	15	4192	1
A24	D26_C3	Piensa que la religi—n estricta molesta al joven.	opaq	religi—n	16	3393	1
A24	D01_C4	Dice que su proyector nuevo cuesta mucho dinero.	opaq	proyector	17	3756	0
A24	D29_C4	Cuenta que su lugar famoso representa su vida.	opaq	lugar	18	2469	1
A24	D07_C2	Descubre que su teclado bueno vale menos dinero.	transp	teclado	19	2811	1
A24	D13_C4	Opina que su collar negro cautiva al cliente.	opaq	collar	20	4366	0
A24	D20_C1	Sostiene que la taberna oscura necesita m‡s luz.	transp	taberna	21	4897	1
A24	D12_C1	Aclara que la palabra secreta resuelve el misterio.	transp	palabra	22	3281	1
A24	D28_C1	Opina que la novela tr‡gica divide al pueblo.	transp	novela	23	5621	1
A24	D22_C3	Dice que la naci—n limpia recibe m‡s turistas.	opaq	naci—n	24	3291	1
A24	D30_C3	Declara que la tradici—n rara confunde al rey.	opaq	tradici—n	25	3303	1
A24	D11_C2	Indica que su mercado peque–o contrata a estudiantes.	transp	mercado	26	2846	1
A24	D03_C2	Cree que su plato t’pico lleva demasiados ingredientes.	transp	plato	27	3541	1
A24	D32_C1	Indica que la revista c—mica divierte a todos.	transp	revista	28	2528	1
A24	D17_C4	Sugiere que su pantal—n rojo llama la atenci—n.	opaq	pantal—n	29	2736	0
A24	D21_C4	Demuestra que su malet’n caro resiste la lluvia.	opaq	malet’n	30	2893	0
A24	D02_C3	Avisa de que la conexi—n moderna repara el sistema.	opaq	conexi—n	31	2795	1
A24	D18_C3	Manifiesta que la mansi—n preciosa sorprende al hombre.	opaq	mansi—n	32	3739	1
A24	D08_C1	Cuenta que la planta bonita gana el concurso.	transp	planta	33	2811	1
A27	PD_C4	Dice que la mochila rallada contiene nuestras cosas	transp	mochila	1	5958	0
A27	D24_C4	Cree que su acci—n mala decepciona al padre.	opaq	acci—n	2	2545	1
A27	D02_C2	Avisa de que su m‡quina moderna repara el sistema.	transp	m‡quina	3	2800	1
A27	D22_C2	Dice que su sala limpia recibe m‡s turistas.	transp	sala	4	3037	1
A27	D15_C1	Explica que el tama–o mediano resulta m‡s pr‡ctico.	transp	tama–o	5	2780	1
A27	D20_C4	Sostiene que su estaci—n oscura necesita m‡s luz.	opaq	estaci—n	6	2910	0
A27	D10_C2	Menciona que su falda dorada causa sorpresa.	transp	falda	7	2791	1
A27	D28_C4	Opina que su situaci—n tr‡gica divide al pueblo.	opaq	situaci—n	8	2992	1
A27	D27_C1	Anuncia que el vaso sucio disgusta al invitado.	transp	vaso	9	3041	1
A27	D17_C3	Sugiere que el pantal—n rojo llama la atenci—n.	opaq	pantal—n	10	2712	1
A27	D19_C1	Descubre que el sombrero barato soporta la lluvia.	transp	sombrero	11	2896	1
A27	D26_C2	Piensa que su iglesia estricta molesta al joven.	transp	iglesia	12	2844	0
A27	D08_C4	Cuenta que su canci—n bonita gana el concurso.	opaq	canci—n	13	3009	1
A27	D11_C1	Indica que el mercado peque–o contrata a estudiantes.	transp	mercado	14	3232	1
A27	D09_C3	Declara que el cami—n antiguo contamina el ambiente.	opaq	cami—n	15	3326	1
A27	D32_C4	Indica que su reuni—n c—mica divierte a todos.	opaq	reuni—n	16	2972	1
A27	D03_C1	Cree que el plato t’pico lleva demasiados ingredientes.	transp	plato	17	3379	1
A27	D14_C2	Se–ala que su fiesta perfecta requiere preparaci—n.	transp	fiesta	18	3541	1
A27	D12_C4	Aclara que su imagen secreta resuelve el misterio.	opaq	imagen	19	3154	1
A27	D25_C3	Comenta que el sill—n blanco demanda mucho cuidado.	opaq	sill—n	20	3555	1
A27	D13_C3	Opina que el collar negro cautiva al cliente.	opaq	collar	21	2947	1
A27	D21_C3	Demuestra que el malet’n caro resiste la lluvia.	opaq	malet’n	22	2927	1
A27	D29_C3	Cuenta que el lugar famoso representa su vida.	opaq	lugar	23	2761	1
A27	D16_C4	Aclara que su opini—n pœblica trae problemas.	opaq	opini—n	24	2852	1
A27	D18_C2	Manifiesta que su piedra preciosa sorprende al hombre.	transp	piedra	25	3229	1
A27	D05_C3	Anuncia que el cristal roto crea m‡s basura.	opaq	cristal	26	3178	1
A27	D04_C4	Comenta que su pared rosada mejora la sala.	opaq	pared	27	2700	1
A27	D23_C1	Avisa de que el templo sagrado tiene poderes m‡gicos.	transp	templo	28	3320	1
A27	D30_C2	Declara que su l‡mpara rara confunde al rey.	transp	l‡mpara	29	2770	1
A27	D01_C3	Dice que el proyector nuevo cuesta mucho dinero.	opaq	proyector	30	3027	1
A27	D07_C1	Descubre que el teclado bueno vale menos dinero.	transp	teclado	31	2902	1
A27	D06_C2	Piensa que su charla larga produce insomnio.	transp	charla	32	2947	1
A27	D31_C1	Menciona que el bolso morado lidera las ventas.	transp	bolso	33	2870	1
A29	PD_C4	Dice que la mochila rallada contiene nuestras cosas	transp	mochila	1	5498	1
A29	D05_C1	Anuncia que el palo roto crea m‡s basura.	transp	palo	2	2512	1
A29	D11_C3	Indica que el hospital peque–o contrata a estudiantes.	opaq	hospital	3	2948	1
A29	D13_C1	Opina que el cuero negro cautiva al cliente.	transp	cuero	4	2507	1
A29	D29_C1	Cuenta que el cuadro famoso representa su vida.	transp	cuadro	5	2427	1
A29	D26_C4	Piensa que su religi—n estricta molesta al joven.	opaq	religi—n	6	2470	0
A29	D20_C2	Sostiene que su taberna oscura necesita m‡s luz.	transp	taberna	7	2219	1
A29	D07_C3	Descubre que el borrador bueno vale menos dinero.	opaq	borrador	8	1962	1
A29	D22_C4	Dice que su naci—n limpia recibe m‡s turistas.	opaq	naci—n	9	1854	0
A29	D14_C4	Se–ala que su lecci—n perfecta requiere preparaci—n.	opaq	lecci—n	10	3394	0
A29	D16_C2	Aclara que su escuela pœbica trae problemas.	transp	escuea	11	2767	1
A29	D10_C4	Menciona que su nariz dorada causa sorpresa.	opaq	nariz	12	3195	0
A29	D25_C1	Comenta que el suelo blanco demanda mucho cuidado.	transp	suelo	13	2819	1
A29	D23_C3	Avisa de que el metal sagrado tiene poderes m‡gicos.	opaq	metal	14	3564	1
A29	D21_C1	Demuestra que el zapato caro resiste la lluvia.	transp	zapato	15	2471	1
A29	D31_C3	Menciona que el ma’z morado lidera las ventas.	opaq	ma’z	16	2777	1
A29	D15_C3	Explica que el cintur—n mediano resulta m‡s pr‡ctico.	opaq	cintur—n	17	2227	1
A29	D08_C2	Cuenta que su planta bonita gana el concurso.	transp	planta	18	3172	1
A29	D03_C3	Cree que el pastel t’pico lleva demasiados ingredientes.	opaq	pastel	19	2990	1
A29	D06_C4	Piensa que su crisis larga produce insomnio.	opaq	crisis	20	2192	0
A29	D09_C1	Declara que el carro antiguo contamina el ambiente.	transp	carro	21	2752	0
A29	D32_C2	Indica que su revista c—mica divierte a todos.	transp	revista	22	2903	1
A29	D24_C2	Cree que su cena mala decepciona al padre.	transp	cena	23	1422	1
A29	D17_C1	Sugiere que el anillo rojo llama la atenci—n.	transp	anillo	24	2454	1
A29	D04_C2	Comenta que su silla rosada mejora la sala.	transp	silla	25	2524	1
A29	D27_C3	Anuncia que el jard’n sucio disgusta al invitado.	opaq	jard’n	26	3160	1
A29	D02_C4	Avisa de que su conexi—n moderna repara el sistema.	opaq	conexi—n	27	3041	0
A29	D12_C2	Aclara que su palabra secreta resuelve el misterio.	transp	palabra	28	3013	1
A29	D30_C4	Declara que su tradici—n rara confunde al rey.	opaq	tradici—n	29	3258	0
A29	D19_C3	Descubre que el paraguas barato soporta la lluvia.	opaq	paraguas	30	3481	0
A29	D01_C1	Dice que el colegio nuevo cuesta mucho dinero.	transp	colegio	31	2758	1
A29	D28_C2	Opina que su novela tr‡gica divide al pueblo.	transp	novela	32	3126	1
A29	D18_C4	Manifiesta que su mansi—n preciosa sorprende al hombre.	opaq	mansi—n	33	3294	0
A3	PD_C4	Dice que la mochila rallada contiene nuestras cosas	transp	mochila	1	6428	1
A3	D23_C1	Avisa de que el templo sagrado tiene poderes m‡gicos.	transp	templo	2	3931	1
A3	D21_C3	Demuestra que el malet’n caro resiste la lluvia.	opaq	malet’n	3	2172	1
A3	D17_C3	Sugiere que el pantal—n rojo llama la atenci—n.	opaq	pantal—n	4	1613	1
A3	D26_C2	Piensa que su iglesia estricta molesta al joven.	transp	iglesia	5	2036	1
A3	D02_C2	Avisa de que su m‡quina moderna repara el sistema.	transp	m‡quina	6	1729	1
A3	D11_C1	Indica que el mercado peque–o contrata a estudiantes.	transp	mercado	7	1663	1
A3	D15_C1	Explica que el tama–o mediano resulta m‡s pr‡ctico.	transp	tama–o	8	2141	1
A3	D01_C3	Dice que el proyector nuevo cuesta mucho dinero.	opaq	proyector	9	1794	1
A3	D03_C1	Cree que el plato t’pico lleva demasiados ingredientes.	transp	plato	10	1485	1
A3	D12_C4	Aclara que su imagen secreta resuelve el misterio.	opaq	imagen	11	2085	1
A3	D05_C3	Anuncia que el cristal roto crea m‡s basura.	opaq	cristal	12	1910	1
A3	D20_C4	Sostiene que su estaci—n oscura necesita m‡s luz.	opaq	estaci—n	13	2353	1
A3	D22_C2	Dice que su sala limpia recibe m‡s turistas.	transp	sala	14	1705	1
A3	D30_C2	Declara que su l‡mpara rara confunde al rey.	transp	l‡mpara	15	1769	1
A3	D31_C1	Menciona que el bolso morado lidera las ventas.	transp	bolso	16	1747	1
A3	D04_C4	Comenta que su pared rosada mejora la sala.	opaq	pared	17	1560	1
A3	D08_C4	Cuenta que su canci—n bonita gana el concurso.	opaq	canci—n	18	1685	1
A3	D09_C3	Declara que el cami—n antiguo contamina el ambiente.	opaq	cami—n	19	2529	1
A3	D13_C3	Opina que el collar negro cautiva al cliente.	opaq	collar	20	1615	1
A3	D06_C2	Piensa que su charla larga produce insomnio.	transp	charla	21	1455	1
A3	D28_C4	Opina que su situaci—n tr‡gica divide al pueblo.	opaq	situaci—n	22	2420	1
A3	D14_C2	Se–ala que su fiesta perfecta requiere preparaci—n.	transp	fiesta	23	1967	1
A3	D24_C4	Cree que su acci—n mala decepciona al padre.	opaq	acci—n	24	2604	1
A3	D32_C4	Indica que su reuni—n c—mica divierte a todos.	opaq	reuni—n	25	3064	1
A3	D16_C4	Aclara que su opini—n pœblica trae problemas.	opaq	opini—n	26	1731	1
A3	D27_C1	Anuncia que el vaso sucio disgusta al invitado.	transp	vaso	27	1868	1
A3	D29_C3	Cuenta que el lugar famoso representa su vida.	opaq	lugar	28	1855	0
A3	D18_C2	Manifiesta que su piedra preciosa sorprende al hombre.	transp	piedra	29	2299	1
A3	D19_C1	Descubre que el sombrero barato soporta la lluvia.	transp	sombrero	30	1538	1
A3	D07_C1	Descubre que el teclado bueno vale menos dinero.	transp	teclado	31	1876	1
A3	D10_C2	Menciona que su falda dorada causa sorpresa.	transp	falda	32	1933	1
A3	D25_C3	Comenta que el sill—n blanco demanda mucho cuidado.	opaq	sill—n	33	1430	1
A31	PD_C4	Dice que la mochila rallada contiene nuestras cosas	transp	mochila	1	6502	1
A31	D02_C2	Avisa de que su m‡quina moderna repara el sistema.	transp	m‡quina	2	2538	1
A31	D11_C1	Indica que el mercado peque–o contrata a estudiantes.	transp	mercado	3	3423	1
A31	D19_C1	Descubre que el sombrero barato soporta la lluvia.	transp	sombrero	4	2564	1
A31	D29_C3	Cuenta que el lugar famoso representa su vida.	opaq	lugar	5	2360	0
A31	D12_C4	Aclara que su imagen secreta resuelve el misterio.	opaq	imagen	6	2123	0
A31	D05_C3	Anuncia que el cristal roto crea m‡s basura.	opaq	cristal	7	2496	1
A31	D03_C1	Cree que el plato t’pico lleva demasiados ingredientes.	transp	plato	8	2584	1
A31	D08_C4	Cuenta que su canci—n bonita gana el concurso.	opaq	canci—n	9	3164	0
A31	D24_C4	Cree que su acci—n mala decepciona al padre.	opaq	acci—n	10	2813	0
A31	D04_C4	Comenta que su pared rosada mejora la sala.	opaq	pared	11	3155	0
A31	D07_C1	Descubre que el teclado bueno vale menos dinero.	transp	teclado	12	3584	1
A31	D25_C3	Comenta que el sill—n blanco demanda mucho cuidado.	opaq	sill—n	13	3918	1
A31	D01_C3	Dice que el proyector nuevo cuesta mucho dinero.	opaq	proyector	14	3341	1
A31	D23_C1	Avisa de que el templo sagrado tiene poderes m‡gicos.	transp	templo	15	3948	1
A31	D31_C1	Menciona que el bolso morado lidera las ventas.	transp	bolso	16	3723	1
A31	D06_C2	Piensa que su charla larga produce insomnio.	transp	charla	17	3302	1
A31	D10_C2	Menciona que su falda dorada causa sorpresa.	transp	falda	18	4251	1
A31	D20_C4	Sostiene que su estaci—n oscura necesita m‡s luz.	opaq	estaci—n	19	3514	0
A31	D30_C2	Declara que su l‡mpara rara confunde al rey.	transp	l‡mpara	20	3526	1
A31	D18_C2	Manifiesta que su piedra preciosa sorprende al hombre.	transp	piedra	21	4483	1
A31	D26_C2	Piensa que su iglesia estricta molesta al joven.	transp	iglesia	22	3271	1
A31	D09_C3	Declara que el cami—n antiguo contamina el ambiente.	opaq	cami—n	23	3586	1
A31	D27_C1	Anuncia que el vaso sucio disgusta al invitado.	transp	vaso	24	4610	1
A31	D14_C2	Se–ala que su fiesta perfecta requiere preparaci—n.	transp	fiesta	25	4019	1
A31	D22_C2	Dice que su sala limpia recibe m‡s turistas.	transp	sala	26	3113	1
A31	D28_C4	Opina que su situaci—n tr‡gica divide al pueblo.	opaq	situaci—n	27	3007	0
A31	D16_C4	Aclara que su opini—n pœblica trae problemas.	opaq	opini—n	28	3837	0
A31	D13_C3	Opina que el collar negro cautiva al cliente.	opaq	collar	29	3137	1
A31	D17_C3	Sugiere que el pantal—n rojo llama la atenci—n.	opaq	pantal—n	30	2885	1
A31	D15_C1	Explica que el tama–o mediano resulta m‡s pr‡ctico.	transp	tama–o	31	2666	1
A31	D32_C4	Indica que su reuni—n c—mica divierte a todos.	opaq	reuni—n	32	2773	1
A31	D21_C3	Demuestra que el malet’n caro resiste la lluvia.	opaq	malet’n	33	2760	1
A34	PD_C4	Dice que la mochila rallada contiene nuestras cosas	transp	mochila	1	5916	1
A34	D14_C1	Se–ala que la fiesta perfecta requiere preparaci—n.	transp	fiesta	2	3075	1
A34	D22_C1	Dice que la sala limpia recibe m‡s turistas.	transp	sala	3	1527	1
A34	D03_C4	Cree que su pastel t’pico lleva demasiados ingredientes.	opaq	pastel	4	3261	1
A34	D15_C4	Explica que su cintur—n mediano resulta m‡s pr‡ctico.	opaq	cintur—n	5	3051	1
A34	D08_C3	Cuenta que la canci—n bonita gana el concurso.	opaq	canci—n	6	3027	1
A34	D21_C2	Demuestra que su zapato caro resiste la lluvia.	transp	zapato	7	3231	1
A34	D19_C4	Descubre que su paraguas barato soporta la lluvia.	opaq	paraguas	8	2720	1
A34	D25_C2	Comenta que su suelo blanco demanda mucho cuidado.	transp	suelo	9	2790	1
A34	D13_C2	Opina que su cuero negro cautiva al cliente.	transp	cuero	10	2637	1
A34	D16_C3	Aclara que la opini—n pœblica trae problemas.	opaq	opini—n	11	2644	1
A34	D27_C4	Anuncia que su jard’n sucio disgusta al invitado.	opaq	jard’n	12	3166	1
A34	D05_C2	Anuncia que su palo roto crea m‡s basura.	transp	palo	13	2521	1
A34	D29_C2	Cuenta que su cuadro famoso representa su vida.	transp	cuadro	14	2616	0
A34	D09_C2	Declara que su carro antiguo contamina el ambiente.	transp	carro	15	2801	1
A34	D02_C1	Avisa de que la m‡quina moderna repara el sistema.	transp	m‡quina	16	2550	1
A34	D20_C3	Sostiene que la estaci—n oscura necesita m‡s luz.	opaq	estaci—n	17	2887	1
A34	D31_C4	Menciona que su ma’z morado lidera las ventas.	opaq	ma’z	18	2466	1
A34	D30_C1	Declara que la l‡mpara rara confunde al rey.	transp	l‡mpara	19	2402	1
A34	D26_C1	Piensa que la iglesia estricta molesta al joven.	transp	iglesia	20	2471	1
A34	D32_C3	Indica que la reuni—n c—mica divierte a todos.	opaq	reuni—n	21	2692	1
A34	D24_C3	Cree que la acci—n mala decepciona al padre.	opaq	acci—n	22	2542	1
A34	D18_C1	Manifiesta que la piedra preciosa sorprende al hombre.	transp	piedra	23	3010	1
A34	D17_C2	Sugiere que su anillo rojo llama la atenci—n.	transp	anillo	24	2725	1
A34	D23_C4	Avisa de que su metal sagrado tiene poderes m‡gicos.	opaq	metal	25	3066	1
A34	D28_C3	Opina que la situaci—n tr‡gica divide al pueblo.	opaq	situaci—n	26	3046	1
A34	D04_C3	Comenta que la pared rosada mejora la sala.	opaq	pared	27	2414	1
A34	D12_C3	Aclara que la imagen secreta resuelve el misterio.	opaq	imagen	28	2638	1
A34	D07_C4	Descubre que su borrador bueno vale menos dinero.	opaq	borrador	29	2711	1
A34	D10_C1	Menciona que la falda dorada causa sorpresa.	transp	falda	30	2451	1
A34	D11_C4	Indica que su hospital peque–o contrata a estudiantes.	opaq	hospital	31	3367	1
A34	D01_C2	Dice que su colegio nuevo cuesta mucho dinero.	transp	colegio	32	2853	1
A34	D06_C1	Piensa que la charla larga produce insomnio.	transp	charla	33	2337	1
A4	PD_C4	Dice que la mochila rallada contiene nuestras cosas	transp	mochila	1	10873	1
A4	D07_C2	Descubre que su teclado bueno vale menos dinero.	transp	teclado	2	3135	1
A4	D05_C4	Anuncia que su cristal roto crea m‡s basura.	opaq	cristal	3	2939	1
A4	D03_C2	Cree que su plato t’pico lleva demasiados ingredientes.	transp	plato	4	3627	1
A4	D19_C2	Descubre que su sombrero barato soporta la lluvia.	transp	sombrero	5	3045	1
A4	D15_C2	Explica que su tama–o mediano resulta m‡s pr‡ctico.	transp	tama–o	6	3005	1
A4	D27_C2	Anuncia que su vaso sucio disgusta al invitado.	transp	vaso	7	3543	0
A4	D23_C2	Avisa de que su templo sagrado tiene poderes m‡gicos.	transp	templo	8	2984	1
A4	D14_C3	Se–ala que la lecci—n perfecta requiere preparaci—n.	opaq	lecci—n	9	3168	1
A4	D08_C1	Cuenta que la planta bonita gana el concurso.	transp	planta	10	2697	1
A4	D28_C1	Opina que la novela tr‡gica divide al pueblo.	transp	novela	11	2651	1
A4	D20_C1	Sostiene que la taberna oscura necesita m‡s luz.	transp	taberna	12	2942	1
A4	D29_C4	Cuenta que su lugar famoso representa su vida.	opaq	lugar	13	2856	1
A4	D21_C4	Demuestra que su malet’n caro resiste la lluvia.	opaq	malet’n	14	2400	1
A4	D30_C3	Declara que la tradici—n rara confunde al rey.	opaq	tradici—n	15	2666	1
A4	D06_C3	Piensa que la crisis larga produce insomnio.	opaq	crisis	16	1968	1
A4	D04_C1	Comenta que la silla rosada mejora la sala.	transp	silla	17	2090	1
A4	D17_C4	Sugiere que su pantal—n rojo llama la atenci—n.	opaq	pantal—n	18	2107	1
A4	D11_C2	Indica que su mercado peque–o contrata a estudiantes.	transp	mercado	19	2830	1
A4	D26_C3	Piensa que la religi—n estricta molesta al joven.	opaq	religi—n	20	2655	1
A4	D09_C4	Declara que su cami—n antiguo contamina el ambiente.	opaq	cami—n	21	2589	1
A4	D10_C3	Menciona que la nariz dorada causa sorpresa.	opaq	nariz	22	2254	1
A4	D13_C4	Opina que su collar negro cautiva al cliente.	opaq	collar	23	2596	1
A4	D25_C4	Comenta que su sill—n blanco demanda mucho cuidado.	opaq	sill—n	24	2624	1
A4	D12_C1	Aclara que la palabra secreta resuelve el misterio.	transp	palabra	25	2995	1
A4	D02_C3	Avisa de que la conexi—n moderna repara el sistema.	opaq	conexi—n	26	2477	1
A4	D01_C4	Dice que su proyector nuevo cuesta mucho dinero.	opaq	proyector	27	2751	1
A4	D32_C1	Indica que la revista c—mica divierte a todos.	transp	revista	28	2402	1
A4	D16_C1	Aclara que la escuela pœblica trae problemas.	transp	escuela	29	2466	1
A4	D24_C1	Cree que la cena mala decepciona al padre.	transp	cena	30	2528	1
A4	D18_C3	Manifiesta que la mansi—n preciosa sorprende al hombre.	opaq	mansi—n	31	2783	1
A4	D22_C3	Dice que la naci—n limpia recibe m‡s turistas.	opaq	naci—n	32	2860	1
A4	D31_C2	Menciona que su bolso morado lidera las ventas.	transp	bolso	33	2489	1
A8	PD_C4	Dice que la mochila rallada contiene nuestras cosas	transp	mochila	1	9266	0
A8	D29_C4	Cuenta que su lugar famoso representa su vida.	opaq	lugar	2	2636	1
A8	D05_C4	Anuncia que su cristal roto crea m‡s basura.	opaq	cristal	3	2551	0
A8	D23_C2	Avisa de que su templo sagrado tiene poderes m‡gicos.	transp	templo	4	2104	1
A8	D21_C4	Demuestra que su malet’n caro resiste la lluvia.	opaq	malet’n	5	2312	0
A8	D20_C1	Sostiene que la taberna oscura necesita m‡s luz.	transp	taberna	6	1887	1
A8	D14_C3	Se–ala que la lecci—n perfecta requiere preparaci—n.	opaq	lecci—n	7	1787	1
A8	D16_C1	Aclara que la escuela pœblica trae problemas.	transp	escuela	8	1842	1
A8	D26_C3	Piensa que la religi—n estricta molesta al joven.	opaq	religi—n	9	2770	1
A8	D01_C4	Dice que su proyector nuevo cuesta mucho dinero.	opaq	proyector	10	2097	0
A8	D27_C2	Anuncia que su vaso sucio disgusta al invitado.	transp	vaso	11	2327	1
A8	D13_C4	Opina que su collar negro cautiva al cliente.	opaq	collar	12	2794	0
A8	D07_C2	Descubre que su teclado bueno vale menos dinero.	transp	teclado	13	2809	1
A8	D25_C4	Comenta que su sill—n blanco demanda mucho cuidado.	opaq	sill—n	14	2885	0
A8	D31_C2	Menciona que su bolso morado lidera las ventas.	transp	bolso	15	2982	1
A8	D10_C3	Menciona que la nariz dorada causa sorpresa.	opaq	nariz	16	1818	1
A8	D28_C1	Opina que la novela tr‡gica divide al pueblo.	transp	novela	17	2666	1
A8	D11_C2	Indica que su mercado peque–o contrata a estudiantes.	transp	mercado	18	3402	1
A8	D32_C1	Indica que la revista c—mica divierte a todos.	transp	revista	19	2966	1
A8	D22_C3	Dice que la naci—n limpia recibe m‡s turistas.	opaq	naci—n	20	2999	1
A8	D03_C2	Cree que su plato t’pico lleva demasiados ingredientes.	transp	plato	21	3420	1
A8	D02_C3	Avisa de que la conexi—n moderna repara el sistema.	opaq	conexi—n	22	2754	1
A8	D06_C3	Piensa que la crisis larga produce insomnio.	opaq	crisis	23	2309	1
A8	D24_C1	Cree que la cena mala decepciona al padre.	transp	cena	24	2388	1
A8	D19_C2	Descubre que su sombrero barato soporta la lluvia.	transp	sombrero	25	3477	0
A8	D17_C4	Sugiere que su pantal—n rojo llama la atenci—n.	opaq	pantal—n	26	1693	0
A8	D08_C1	Cuenta que la planta bonita gana el concurso.	transp	planta	27	1660	1
A8	D12_C1	Aclara que la palabra secreta resuelve el misterio.	transp	palabra	28	1556	1
A8	D09_C4	Declara que su cami—n antiguo contamina el ambiente.	opaq	cami—n	29	1574	0
A8	D15_C2	Explica que su tama–o mediano resulta m‡s pr‡ctico.	transp	tama–o	30	2767	1
A8	D30_C3	Declara que la tradici—n rara confunde al rey.	opaq	tradici—n	31	1756	1
A8	D18_C3	Manifiesta que la mansi—n preciosa sorprende al hombre.	opaq	mansi—n	32	2535	1
A8	D04_C1	Comenta que la silla rosada mejora la sala.	transp	silla	33	1283	1
B3	PD_C4	Dice que la mochila rallada contiene nuestras cosas	transp	mochila	1	4919	1
B3	D12_C3	Aclara que la imagen secreta resuelve el misterio.	opaq	imagen	2	1602	1
B3	D30_C1	Declara que la l‡mpara rara confunde al rey.	transp	l‡mpara	3	1324	1
B3	D16_C3	Aclara que la opini—n pœblica trae problemas.	opaq	opini—n	4	1504	1
B3	D21_C2	Demuestra que su zapato caro resiste la lluvia.	transp	zapato	5	1624	1
B3	D11_C4	Indica que su hospital peque–o contrata a estudiantes.	opaq	hospital	6	1762	0
B3	D07_C4	Descubre que su borrador bueno vale menos dinero.	opaq	borrador	7	1687	0
B3	D26_C1	Piensa que la iglesia estricta molesta al joven.	transp	iglesia	8	1572	1
B3	D10_C1	Menciona que la falda dorada causa sorpresa.	transp	falda	9	1621	1
B3	D22_C1	Dice que la sala limpia recibe m‡s turistas.	transp	sala	10	1564	1
B3	D06_C1	Piensa que la charla larga produce insomnio.	transp	charla	11	1480	1
B3	D15_C4	Explica que su cintur—n mediano resulta m‡s pr‡ctico.	opaq	cintur—n	12	1793	0
B3	D01_C2	Dice que su colegio nuevo cuesta mucho dinero.	transp	colegio	13	1668	1
B3	D29_C2	Cuenta que su cuadro famoso representa su vida.	transp	cuadro	14	1572	1
B3	D04_C3	Comenta que la pared rosada mejora la sala.	opaq	pared	15	1793	1
B3	D23_C4	Avisa de que su metal sagrado tiene poderes m‡gicos.	opaq	metal	16	1654	0
B3	D08_C3	Cuenta que la canci—n bonita gana el concurso.	opaq	canci—n	17	1534	1
B3	D14_C1	Se–ala que la fiesta perfecta requiere preparaci—n.	transp	fiesta	18	1802	1
B3	D28_C3	Opina que la situaci—n tr‡gica divide al pueblo.	opaq	situaci—n	19	2016	1
B3	D02_C1	Avisa de que la m‡quina moderna repara el sistema.	transp	m‡quina	20	1477	1
B3	D27_C4	Anuncia que su jard’n sucio disgusta al invitado.	opaq	jard’n	21	1684	0
B3	D05_C2	Anuncia que su palo roto crea m‡s basura.	transp	palo	22	1435	1
B3	D03_C4	Cree que su pastel t’pico lleva demasiados ingredientes.	opaq	pastel	23	1733	0
B3	D24_C3	Cree que la acci—n mala decepciona al padre.	opaq	acci—n	24	1385	1
B3	D25_C2	Comenta que su suelo blanco demanda mucho cuidado.	transp	suelo	25	1263	1
B3	D32_C3	Indica que la reuni—n c—mica divierte a todos.	opaq	reuni—n	26	1428	1
B3	D09_C2	Declara que su carro antiguo contamina el ambiente.	transp	carro	27	1617	1
B3	D31_C4	Menciona que su ma’z morado lidera las ventas.	opaq	ma’z	28	1499	0
B3	D19_C4	Descubre que su paraguas barato soporta la lluvia.	opaq	paraguas	29	1833	0
B3	D17_C2	Sugiere que su anillo rojo llama la atenci—n.	transp	anillo	30	1506	1
B3	D20_C3	Sostiene que la estaci—n oscura necesita m‡s luz.	opaq	estaci—n	31	1802	1
B3	D13_C2	Opina que su cuero negro cautiva al cliente.	transp	cuero	32	1568	1
B3	D18_C1	Manifiesta que la piedra preciosa sorprende al hombre.	transp	piedra	33	2608	1
A37	PD_C4	Dice que la mochila rallada contiene nuestras cosas	transp	mochila	1	8281	1
A37	D05_C1	Anuncia que el palo roto crea m‡s basura.	transp	palo	2	2587	1
A37	D29_C1	Cuenta que el cuadro famoso representa su vida.	transp	cuadro	3	3151	1
A37	D13_C1	Opina que el cuero negro cautiva al cliente.	transp	cuero	4	3516	1
A37	D07_C3	Descubre que el borrador bueno vale menos dinero.	opaq	borrador	5	2837	1
A37	D14_C4	Se–ala que su lecci—n perfecta requiere preparaci—n.	opaq	lecci—n	6	3353	1
A37	D16_C2	Aclara que su escuela pœbica trae problemas.	transp	escuea	7	2907	1
A37	D22_C4	Dice que su naci—n limpia recibe m‡s turistas.	opaq	naci—n	8	2710	1
A37	D18_C4	Manifiesta que su mansi—n preciosa sorprende al hombre.	opaq	mansi—n	9	3420	0
A37	D02_C4	Avisa de que su conexi—n moderna repara el sistema.	opaq	conexi—n	10	2927	1
A37	D31_C3	Menciona que el ma’z morado lidera las ventas.	opaq	ma’z	11	2777	1
A37	D01_C1	Dice que el colegio nuevo cuesta mucho dinero.	transp	colegio	12	3453	1
A37	D08_C2	Cuenta que su planta bonita gana el concurso.	transp	planta	13	3048	1
A37	D10_C4	Menciona que su nariz dorada causa sorpresa.	opaq	nariz	14	3265	1
A37	D12_C2	Aclara que su palabra secreta resuelve el misterio.	transp	palabra	15	3571	1
A37	D19_C3	Descubre que el paraguas barato soporta la lluvia.	opaq	paraguas	16	3146	1
A37	D04_C2	Comenta que su silla rosada mejora la sala.	transp	silla	17	5729	1
A37	D15_C3	Explica que el cintur—n mediano resulta m‡s pr‡ctico.	opaq	cintur—n	18	3177	1
A37	D03_C3	Cree que el pastel t’pico lleva demasiados ingredientes.	opaq	pastel	19	2333	1
A37	D28_C2	Opina que su novela tr‡gica divide al pueblo.	transp	novela	20	3965	1
A37	D11_C3	Indica que el hospital peque–o contrata a estudiantes.	opaq	hospital	21	4717	0
A37	D30_C4	Declara que su tradici—n rara confunde al rey.	opaq	tradici—n	22	2943	1
A37	D09_C1	Declara que el carro antiguo contamina el ambiente.	transp	carro	23	5085	0
A37	D06_C4	Piensa que su crisis larga produce insomnio.	opaq	crisis	24	4158	1
A37	D23_C3	Avisa de que el metal sagrado tiene poderes m‡gicos.	opaq	metal	25	3457	1
A37	D20_C2	Sostiene que su taberna oscura necesita m‡s luz.	transp	taberna	26	3028	1
A37	D32_C2	Indica que su revista c—mica divierte a todos.	transp	revista	27	2809	1
A37	D25_C1	Comenta que el suelo blanco demanda mucho cuidado.	transp	suelo	28	4020	0
A37	D26_C4	Piensa que su religi—n estricta molesta al joven.	opaq	religi—n	29	5063	0
A37	D24_C2	Cree que su cena mala decepciona al padre.	transp	cena	30	2498	1
A37	D27_C3	Anuncia que el jard’n sucio disgusta al invitado.	opaq	jard’n	31	2995	1
A37	D17_C1	Sugiere que el anillo rojo llama la atenci—n.	transp	anillo	32	2348	1
A37	D21_C1	Demuestra que el zapato caro resiste la lluvia.	transp	zapato	33	2508	1
A38	PD_C4	Dice que la mochila rallada contiene nuestras cosas	transp	mochila	1	5515	1
A38	D26_C1	Piensa que la iglesia estricta molesta al joven.	transp	iglesia	2	1848	1
A38	D31_C4	Menciona que su ma’z morado lidera las ventas.	opaq	ma’z	3	1452	1
A38	D09_C2	Declara que su carro antiguo contamina el ambiente.	transp	carro	4	1565	1
A38	D29_C2	Cuenta que su cuadro famoso representa su vida.	transp	cuadro	5	2426	0
A38	D24_C3	Cree que la acci—n mala decepciona al padre.	opaq	acci—n	6	2134	1
A38	D15_C4	Explica que su cintur—n mediano resulta m‡s pr‡ctico.	opaq	cintur—n	7	2730	1
A38	D19_C4	Descubre que su paraguas barato soporta la lluvia.	opaq	paraguas	8	1950	1
A38	D20_C3	Sostiene que la estaci—n oscura necesita m‡s luz.	opaq	estaci—n	9	2369	1
A38	D03_C4	Cree que su pastel t’pico lleva demasiados ingredientes.	opaq	pastel	10	1659	1
A38	D28_C3	Opina que la situaci—n tr‡gica divide al pueblo.	opaq	situaci—n	11	2053	1
A38	D22_C1	Dice que la sala limpia recibe m‡s turistas.	transp	sala	12	1713	1
A38	D11_C4	Indica que su hospital peque–o contrata a estudiantes.	opaq	hospital	13	1704	1
A38	D14_C1	Se–ala que la fiesta perfecta requiere preparaci—n.	transp	fiesta	14	1938	1
A38	D30_C1	Declara que la l‡mpara rara confunde al rey.	transp	l‡mpara	15	1400	1
A38	D10_C1	Menciona que la falda dorada causa sorpresa.	transp	falda	16	1550	1
A38	D06_C1	Piensa que la charla larga produce insomnio.	transp	charla	17	1396	1
A38	D25_C2	Comenta que su suelo blanco demanda mucho cuidado.	transp	suelo	18	1349	1
A38	D17_C2	Sugiere que su anillo rojo llama la atenci—n.	transp	anillo	19	1414	1
A38	D12_C3	Aclara que la imagen secreta resuelve el misterio.	opaq	imagen	20	1520	1
A38	D05_C2	Anuncia que su palo roto crea m‡s basura.	transp	palo	21	1257	1
A38	D07_C4	Descubre que su borrador bueno vale menos dinero.	opaq	borrador	22	1661	0
A38	D08_C3	Cuenta que la canci—n bonita gana el concurso.	opaq	canci—n	23	1938	1
A38	D32_C3	Indica que la reuni—n c—mica divierte a todos.	opaq	reuni—n	24	1630	1
A38	D16_C3	Aclara que la opini—n pœblica trae problemas.	opaq	opini—n	25	1542	1
A38	D27_C4	Anuncia que su jard’n sucio disgusta al invitado.	opaq	jard’n	26	1727	1
A38	D02_C1	Avisa de que la m‡quina moderna repara el sistema.	transp	m‡quina	27	1615	1
A38	D18_C1	Manifiesta que la piedra preciosa sorprende al hombre.	transp	piedra	28	1580	1
A38	D13_C2	Opina que su cuero negro cautiva al cliente.	transp	cuero	29	1292	1
A38	D04_C3	Comenta que la pared rosada mejora la sala.	opaq	pared	30	1348	1
A38	D23_C4	Avisa de que su metal sagrado tiene poderes m‡gicos.	opaq	metal	31	4681	1
A38	D01_C2	Dice que su colegio nuevo cuesta mucho dinero.	transp	colegio	32	1558	1
A38	D21_C2	Demuestra que su zapato caro resiste la lluvia.	transp	zapato	33	1469	1
A40	PD_C4	Dice que la mochila rallada contiene nuestras cosas	transp	mochila	1	4728	1
A40	D08_C1	Cuenta que la planta bonita gana el concurso.	transp	planta	2	1316	1
A40	D12_C1	Aclara que la palabra secreta resuelve el misterio.	transp	palabra	3	1806	1
A40	D28_C1	Opina que la novela tr‡gica divide al pueblo.	transp	novela	4	1795	1
A40	D16_C1	Aclara que la escuela pœblica trae problemas.	transp	escuela	5	1671	1
A40	D18_C3	Manifiesta que la mansi—n preciosa sorprende al hombre.	opaq	mansi—n	6	2350	0
A40	D19_C2	Descubre que su sombrero barato soporta la lluvia.	transp	sombrero	7	1616	1
A40	D22_C3	Dice que la naci—n limpia recibe m‡s turistas.	opaq	naci—n	8	1454	1
A40	D10_C3	Menciona que la nariz dorada causa sorpresa.	opaq	nariz	9	1535	1
A40	D31_C2	Menciona que su bolso morado lidera las ventas.	transp	bolso	10	1240	1
A40	D32_C1	Indica que la revista c—mica divierte a todos.	transp	revista	11	1446	1
A40	D24_C1	Cree que la cena mala decepciona al padre.	transp	cena	12	1338	1
A40	D17_C4	Sugiere que su pantal—n rojo llama la atenci—n.	opaq	pantal—n	13	1429	1
A40	D30_C3	Declara que la tradici—n rara confunde al rey.	opaq	tradici—n	14	2007	1
A40	D21_C4	Demuestra que su malet’n caro resiste la lluvia.	opaq	malet’n	15	1442	1
A40	D01_C4	Dice que su proyector nuevo cuesta mucho dinero.	opaq	proyector	16	1629	1
A40	D27_C2	Anuncia que su vaso sucio disgusta al invitado.	transp	vaso	17	1614	1
A40	D07_C2	Descubre que su teclado bueno vale menos dinero.	transp	teclado	18	1488	1
A40	D04_C1	Comenta que la silla rosada mejora la sala.	transp	silla	19	1146	1
A40	D25_C4	Comenta que su sill—n blanco demanda mucho cuidado.	opaq	sill—n	20	1250	1
A40	D03_C2	Cree que su plato t’pico lleva demasiados ingredientes.	transp	plato	21	1643	1
A40	D09_C4	Declara que su cami—n antiguo contamina el ambiente.	opaq	cami—n	22	1635	1
A40	D20_C1	Sostiene que la taberna oscura necesita m‡s luz.	transp	taberna	23	1589	1
A40	D15_C2	Explica que su tama–o mediano resulta m‡s pr‡ctico.	transp	tama–o	24	2995	0
A40	D06_C3	Piensa que la crisis larga produce insomnio.	opaq	crisis	25	1321	1
A40	D14_C3	Se–ala que la lecci—n perfecta requiere preparaci—n.	opaq	lecci—n	26	1307	1
A40	D29_C4	Cuenta que su lugar famoso representa su vida.	opaq	lugar	27	1557	0
A40	D13_C4	Opina que su collar negro cautiva al cliente.	opaq	collar	28	1570	1
A40	D05_C4	Anuncia que su cristal roto crea m‡s basura.	opaq	cristal	29	1880	1
A40	D11_C2	Indica que su mercado peque–o contrata a estudiantes.	transp	mercado	30	2231	1
A40	D23_C2	Avisa de que su templo sagrado tiene poderes m‡gicos.	transp	templo	31	1957	1
A40	D02_C3	Avisa de que la conexi—n moderna repara el sistema.	opaq	conexi—n	32	1542	1
A40	D26_C3	Piensa que la religi—n estricta molesta al joven.	opaq	religi—n	33	1589	1
A41	PD_C4	Dice que la mochila rallada contiene nuestras cosas	transp	mochila	1	4703	1
A41	D16_C2	Aclara que su escuela pœbica trae problemas.	transp	escuea	2	1749	1
A41	D09_C1	Declara que el carro antiguo contamina el ambiente.	transp	carro	3	1538	1
A41	D22_C4	Dice que su naci—n limpia recibe m‡s turistas.	opaq	naci—n	4	1668	1
A41	D01_C1	Dice que el colegio nuevo cuesta mucho dinero.	transp	colegio	5	1483	1
A41	D11_C3	Indica que el hospital peque–o contrata a estudiantes.	opaq	hospital	6	1444	0
A41	D02_C4	Avisa de que su conexi—n moderna repara el sistema.	opaq	conexi—n	7	1933	1
A41	D32_C2	Indica que su revista c—mica divierte a todos.	transp	revista	8	1711	1
A41	D19_C3	Descubre que el paraguas barato soporta la lluvia.	opaq	paraguas	9	1694	1
A41	D04_C2	Comenta que su silla rosada mejora la sala.	transp	silla	10	1557	1
A41	D25_C1	Comenta que el suelo blanco demanda mucho cuidado.	transp	suelo	11	1362	1
A41	D12_C2	Aclara que su palabra secreta resuelve el misterio.	transp	palabra	12	1647	1
A41	D10_C4	Menciona que su nariz dorada causa sorpresa.	opaq	nariz	13	1455	1
A41	D29_C1	Cuenta que el cuadro famoso representa su vida.	transp	cuadro	14	2082	1
A41	D06_C4	Piensa que su crisis larga produce insomnio.	opaq	crisis	15	1228	1
A41	D31_C3	Menciona que el ma’z morado lidera las ventas.	opaq	ma’z	16	1386	1
A41	D14_C4	Se–ala que su lecci—n perfecta requiere preparaci—n.	opaq	lecci—n	17	1830	1
A41	D23_C3	Avisa de que el metal sagrado tiene poderes m‡gicos.	opaq	metal	18	1473	1
A41	D27_C3	Anuncia que el jard’n sucio disgusta al invitado.	opaq	jard’n	19	2079	1
A41	D07_C3	Descubre que el borrador bueno vale menos dinero.	opaq	borrador	20	1531	1
A41	D03_C3	Cree que el pastel t’pico lleva demasiados ingredientes.	opaq	pastel	21	1355	1
A41	D15_C3	Explica que el cintur—n mediano resulta m‡s pr‡ctico.	opaq	cintur—n	22	2207	1
A41	D05_C1	Anuncia que el palo roto crea m‡s basura.	transp	palo	23	1291	1
A41	D18_C4	Manifiesta que su mansi—n preciosa sorprende al hombre.	opaq	mansi—n	24	2780	0
A41	D21_C1	Demuestra que el zapato caro resiste la lluvia.	transp	zapato	25	1517	1
A41	D13_C1	Opina que el cuero negro cautiva al cliente.	transp	cuero	26	1085	1
A41	D28_C2	Opina que su novela tr‡gica divide al pueblo.	transp	novela	27	1520	1
A41	D20_C2	Sostiene que su taberna oscura necesita m‡s luz.	transp	taberna	28	2018	1
A41	D17_C1	Sugiere que el anillo rojo llama la atenci—n.	transp	anillo	29	1271	1
A41	D24_C2	Cree que su cena mala decepciona al padre.	transp	cena	30	1340	1
A41	D08_C2	Cuenta que su planta bonita gana el concurso.	transp	planta	31	1513	1
A41	D26_C4	Piensa que su religi—n estricta molesta al joven.	opaq	religi—n	32	1759	1
A41	D30_C4	Declara que su tradici—n rara confunde al rey.	opaq	tradici—n	33	1734	1
A44	PD_C4	Dice que la mochila rallada contiene nuestras cosas	transp	mochila	1	5610	1
A44	D30_C3	Declara que la tradici—n rara confunde al rey.	opaq	tradici—n	2	2604	1
A44	D07_C2	Descubre que su teclado bueno vale menos dinero.	transp	teclado	3	2587	1
A44	D02_C3	Avisa de que la conexi—n moderna repara el sistema.	opaq	conexi—n	4	2002	1
A44	D13_C4	Opina que su collar negro cautiva al cliente.	opaq	collar	5	1946	1
A44	D24_C1	Cree que la cena mala decepciona al padre.	transp	cena	6	1809	1
A44	D16_C1	Aclara que la escuela pœblica trae problemas.	transp	escuela	7	1897	1
A44	D28_C1	Opina que la novela tr‡gica divide al pueblo.	transp	novela	8	1846	1
A44	D25_C4	Comenta que su sill—n blanco demanda mucho cuidado.	opaq	sill—n	9	1981	1
A44	D27_C2	Anuncia que su vaso sucio disgusta al invitado.	transp	vaso	10	2078	1
A44	D15_C2	Explica que su tama–o mediano resulta m‡s pr‡ctico.	transp	tama–o	11	2657	1
A44	D12_C1	Aclara que la palabra secreta resuelve el misterio.	transp	palabra	12	1772	1
A44	D03_C2	Cree que su plato t’pico lleva demasiados ingredientes.	transp	plato	13	1687	1
A44	D08_C1	Cuenta que la planta bonita gana el concurso.	transp	planta	14	1638	1
A44	D18_C3	Manifiesta que la mansi—n preciosa sorprende al hombre.	opaq	mansi—n	15	1928	1
A44	D23_C2	Avisa de que su templo sagrado tiene poderes m‡gicos.	transp	templo	16	1770	1
A44	D10_C3	Menciona que la nariz dorada causa sorpresa.	opaq	nariz	17	1367	1
A44	D26_C3	Piensa que la religi—n estricta molesta al joven.	opaq	religi—n	18	1717	1
A44	D04_C1	Comenta que la silla rosada mejora la sala.	transp	silla	19	1355	1
A44	D05_C4	Anuncia que su cristal roto crea m‡s basura.	opaq	cristal	20	1671	1
A44	D09_C4	Declara que su cami—n antiguo contamina el ambiente.	opaq	cami—n	21	1609	1
A44	D06_C3	Piensa que la crisis larga produce insomnio.	opaq	crisis	22	1445	1
A44	D32_C1	Indica que la revista c—mica divierte a todos.	transp	revista	23	1704	1
A44	D01_C4	Dice que su proyector nuevo cuesta mucho dinero.	opaq	proyector	24	1621	1
A44	D31_C2	Menciona que su bolso morado lidera las ventas.	transp	bolso	25	1460	1
A44	D17_C4	Sugiere que su pantal—n rojo llama la atenci—n.	opaq	pantal—n	26	1586	1
A44	D14_C3	Se–ala que la lecci—n perfecta requiere preparaci—n.	opaq	lecci—n	27	1687	1
A44	D29_C4	Cuenta que su lugar famoso representa su vida.	opaq	lugar	28	2342	1
A44	D20_C1	Sostiene que la taberna oscura necesita m‡s luz.	transp	taberna	29	1603	1
A44	D11_C2	Indica que su mercado peque–o contrata a estudiantes.	transp	mercado	30	1690	1
A44	D19_C2	Descubre que su sombrero barato soporta la lluvia.	transp	sombrero	31	1754	1
A44	D21_C4	Demuestra que su malet’n caro resiste la lluvia.	opaq	malet’n	32	1587	1
A44	D22_C3	Dice que la naci—n limpia recibe m‡s turistas.	opaq	naci—n	33	1602	1
A47	PD_C4	Dice que la mochila rallada contiene nuestras cosas	transp	mochila	1	5760	1
A47	D29_C3	Cuenta que el lugar famoso representa su vida.	opaq	lugar	2	3210	0
A47	D04_C4	Comenta que su pared rosada mejora la sala.	opaq	pared	3	2969	1
A47	D11_C1	Indica que el mercado peque–o contrata a estudiantes.	transp	mercado	4	3327	1
A47	D17_C3	Sugiere que el pantal—n rojo llama la atenci—n.	opaq	pantal—n	5	2656	1
A47	D21_C3	Demuestra que el malet’n caro resiste la lluvia.	opaq	malet’n	6	2893	1
A47	D31_C1	Menciona que el bolso morado lidera las ventas.	transp	bolso	7	2825	1
A47	D14_C2	Se–ala que su fiesta perfecta requiere preparaci—n.	transp	fiesta	8	3148	1
A47	D16_C4	Aclara que su opini—n pœblica trae problemas.	opaq	opini—n	9	3029	1
A47	D28_C4	Opina que su situaci—n tr‡gica divide al pueblo.	opaq	situaci—n	10	2946	1
A47	D22_C2	Dice que su sala limpia recibe m‡s turistas.	transp	sala	11	2835	1
A47	D02_C2	Avisa de que su m‡quina moderna repara el sistema.	transp	m‡quina	12	2687	1
A47	D19_C1	Descubre que el sombrero barato soporta la lluvia.	transp	sombrero	13	2783	1
A47	D12_C4	Aclara que su imagen secreta resuelve el misterio.	opaq	imagen	14	2902	1
A47	D10_C2	Menciona que su falda dorada causa sorpresa.	transp	falda	15	3189	1
A47	D26_C2	Piensa que su iglesia estricta molesta al joven.	transp	iglesia	16	2814	1
A47	D15_C1	Explica que el tama–o mediano resulta m‡s pr‡ctico.	transp	tama–o	17	2929	1
A47	D23_C1	Avisa de que el templo sagrado tiene poderes m‡gicos.	transp	templo	18	3388	1
A47	D09_C3	Declara que el cami—n antiguo contamina el ambiente.	opaq	cami—n	19	3038	1
A47	D06_C2	Piensa que su charla larga produce insomnio.	transp	charla	20	2484	1
A47	D01_C3	Dice que el proyector nuevo cuesta mucho dinero.	opaq	proyector	21	3059	1
A47	D08_C4	Cuenta que su canci—n bonita gana el concurso.	opaq	canci—n	22	3075	1
A47	D18_C2	Manifiesta que su piedra preciosa sorprende al hombre.	transp	piedra	23	3827	1
A47	D24_C4	Cree que su acci—n mala decepciona al padre.	opaq	acci—n	24	2844	1
A47	D05_C3	Anuncia que el cristal roto crea m‡s basura.	opaq	cristal	25	2480	1
A47	D03_C1	Cree que el plato t’pico lleva demasiados ingredientes.	transp	plato	26	3078	1
A47	D27_C1	Anuncia que el vaso sucio disgusta al invitado.	transp	vaso	27	2933	1
A47	D32_C4	Indica que su reuni—n c—mica divierte a todos.	opaq	reuni—n	28	2856	1
A47	D13_C3	Opina que el collar negro cautiva al cliente.	opaq	collar	29	2698	1
A47	D30_C2	Declara que su l‡mpara rara confunde al rey.	transp	l‡mpara	30	3073	1
A47	D25_C3	Comenta que el sill—n blanco demanda mucho cuidado.	opaq	sill—n	31	2841	1
A47	D07_C1	Descubre que el teclado bueno vale menos dinero.	transp	teclado	32	2666	1
A47	D20_C4	Sostiene que su estaci—n oscura necesita m‡s luz.	opaq	estaci—n	33	3960	1
A48	PD_C4	Dice que la mochila rallada contiene nuestras cosas	transp	mochila	1	6053	1
A48	D26_C3	Piensa que la religi—n estricta molesta al joven.	opaq	religi—n	2	1949	1
A48	D22_C3	Dice que la naci—n limpia recibe m‡s turistas.	opaq	naci—n	3	1812	1
A48	D07_C2	Descubre que su teclado bueno vale menos dinero.	transp	teclado	4	1752	1
A48	D14_C3	Se–ala que la lecci—n perfecta requiere preparaci—n.	opaq	lecci—n	5	1656	1
A48	D17_C4	Sugiere que su pantal—n rojo llama la atenci—n.	opaq	pantal—n	6	1616	1
A48	D24_C1	Cree que la cena mala decepciona al padre.	transp	cena	7	1275	1
A48	D23_C2	Avisa de que su templo sagrado tiene poderes m‡gicos.	transp	templo	8	1735	1
A48	D01_C4	Dice que su proyector nuevo cuesta mucho dinero.	opaq	proyector	9	1630	1
A48	D09_C4	Declara que su cami—n antiguo contamina el ambiente.	opaq	cami—n	10	1605	1
A48	D08_C1	Cuenta que la planta bonita gana el concurso.	transp	planta	11	1575	1
A48	D19_C2	Descubre que su sombrero barato soporta la lluvia.	transp	sombrero	12	1759	1
A48	D05_C4	Anuncia que su cristal roto crea m‡s basura.	opaq	cristal	13	1467	1
A48	D32_C1	Indica que la revista c—mica divierte a todos.	transp	revista	14	1572	1
A48	D10_C3	Menciona que la nariz dorada causa sorpresa.	opaq	nariz	15	1322	1
A48	D15_C2	Explica que su tama–o mediano resulta m‡s pr‡ctico.	transp	tama–o	16	2217	1
A48	D06_C3	Piensa que la crisis larga produce insomnio.	opaq	crisis	17	1211	1
A48	D27_C2	Anuncia que su vaso sucio disgusta al invitado.	transp	vaso	18	4275	1
A48	D20_C1	Sostiene que la taberna oscura necesita m‡s luz.	transp	taberna	19	1444	1
A48	D30_C3	Declara que la tradici—n rara confunde al rey.	opaq	tradici—n	20	1634	1
A48	D29_C4	Cuenta que su lugar famoso representa su vida.	opaq	lugar	21	1387	1
A48	D12_C1	Aclara que la palabra secreta resuelve el misterio.	transp	palabra	22	1591	1
A48	D16_C1	Aclara que la escuela pœblica trae problemas.	transp	escuela	23	1501	1
A48	D11_C2	Indica que su mercado peque–o contrata a estudiantes.	transp	mercado	24	1784	1
A48	D28_C1	Opina que la novela tr‡gica divide al pueblo.	transp	novela	25	1670	1
A48	D04_C1	Comenta que la silla rosada mejora la sala.	transp	silla	26	1540	1
A48	D31_C2	Menciona que su bolso morado lidera las ventas.	transp	bolso	27	1689	1
A48	D03_C2	Cree que su plato t’pico lleva demasiados ingredientes.	transp	plato	28	1481	1
A48	D13_C4	Opina que su collar negro cautiva al cliente.	opaq	collar	29	1496	1
A48	D02_C3	Avisa de que la conexi—n moderna repara el sistema.	opaq	conexi—n	30	1576	1
A48	D21_C4	Demuestra que su malet’n caro resiste la lluvia.	opaq	malet’n	31	1592	1
A48	D18_C3	Manifiesta que la mansi—n preciosa sorprende al hombre.	opaq	mansi—n	32	1822	0
A48	D25_C4	Comenta que su sill—n blanco demanda mucho cuidado.	opaq	sill—n	33	1414	1
A52	PD_C4	Dice que la mochila rallada contiene nuestras cosas	transp	mochila	1	29248	0
A52	D30_C3	Declara que la tradici—n rara confunde al rey.	opaq	tradici—n	2	2932	1
A52	D08_C1	Cuenta que la planta bonita gana el concurso.	transp	planta	3	2981	1
A52	D19_C2	Descubre que su sombrero barato soporta la lluvia.	transp	sombrero	4	2702	1
A52	D28_C1	Opina que la novela tr‡gica divide al pueblo.	transp	novela	5	2644	1
A52	D16_C1	Aclara que la escuela pœblica trae problemas.	transp	escuela	6	2248	1
A52	D24_C1	Cree que la cena mala decepciona al padre.	transp	cena	7	2334	1
A52	D22_C3	Dice que la naci—n limpia recibe m‡s turistas.	opaq	naci—n	8	2099	1
A52	D17_C4	Sugiere que su pantal—n rojo llama la atenci—n.	opaq	pantal—n	9	1725	1
A52	D11_C2	Indica que su mercado peque–o contrata a estudiantes.	transp	mercado	10	3450	1
A52	D09_C4	Declara que su cami—n antiguo contamina el ambiente.	opaq	cami—n	11	2791	1
A52	D29_C4	Cuenta que su lugar famoso representa su vida.	opaq	lugar	12	3309	0
A52	D14_C3	Se–ala que la lecci—n perfecta requiere preparaci—n.	opaq	lecci—n	13	3598	1
A52	D05_C4	Anuncia que su cristal roto crea m‡s basura.	opaq	cristal	14	2760	1
A52	D13_C4	Opina que su collar negro cautiva al cliente.	opaq	collar	15	3046	1
A52	D03_C2	Cree que su plato t’pico lleva demasiados ingredientes.	transp	plato	16	3477	1
A52	D06_C3	Piensa que la crisis larga produce insomnio.	opaq	crisis	17	2198	1
A52	D10_C3	Menciona que la nariz dorada causa sorpresa.	opaq	nariz	18	2559	1
A52	D31_C2	Menciona que su bolso morado lidera las ventas.	transp	bolso	19	2711	0
A52	D27_C2	Anuncia que su vaso sucio disgusta al invitado.	transp	vaso	20	3116	1
A52	D07_C2	Descubre que su teclado bueno vale menos dinero.	transp	teclado	21	2816	1
A52	D18_C3	Manifiesta que la mansi—n preciosa sorprende al hombre.	opaq	mansi—n	22	2364	1
A52	D32_C1	Indica que la revista c—mica divierte a todos.	transp	revista	23	2255	1
A52	D23_C2	Avisa de que su templo sagrado tiene poderes m‡gicos.	transp	templo	24	2558	1
A52	D26_C3	Piensa que la religi—n estricta molesta al joven.	opaq	religi—n	25	2637	1
A52	D02_C3	Avisa de que la conexi—n moderna repara el sistema.	opaq	conexi—n	26	2408	1
A52	D21_C4	Demuestra que su malet’n caro resiste la lluvia.	opaq	malet’n	27	2672	1
A52	D12_C1	Aclara que la palabra secreta resuelve el misterio.	transp	palabra	28	2122	1
A52	D15_C2	Explica que su tama–o mediano resulta m‡s pr‡ctico.	transp	tama–o	29	1673	1
A52	D01_C4	Dice que su proyector nuevo cuesta mucho dinero.	opaq	proyector	30	1735	1
A52	D04_C1	Comenta que la silla rosada mejora la sala.	transp	silla	31	1697	1
A52	D25_C4	Comenta que su sill—n blanco demanda mucho cuidado.	opaq	sill—n	32	1473	1
A52	D20_C1	Sostiene que la taberna oscura necesita m‡s luz.	transp	taberna	33	2318	1
A53	PD_C4	Dice que la mochila rallada contiene nuestras cosas	transp	mochila	1	5555	1
A53	D11_C3	Indica que el hospital peque–o contrata a estudiantes.	opaq	hospital	2	3903	1
A53	D06_C4	Piensa que su crisis larga produce insomnio.	opaq	crisis	3	2512	1
A53	D10_C4	Menciona que su nariz dorada causa sorpresa.	opaq	nariz	4	2372	1
A53	D08_C2	Cuenta que su planta bonita gana el concurso.	transp	planta	5	2604	1
A53	D19_C3	Descubre que el paraguas barato soporta la lluvia.	opaq	paraguas	6	2597	1
A53	D18_C4	Manifiesta que su mansi—n preciosa sorprende al hombre.	opaq	mansi—n	7	3173	1
A53	D12_C2	Aclara que su palabra secreta resuelve el misterio.	transp	palabra	8	2906	1
A53	D15_C3	Explica que el cintur—n mediano resulta m‡s pr‡ctico.	opaq	cintur—n	9	2998	1
A53	D05_C1	Anuncia que el palo roto crea m‡s basura.	transp	palo	10	2360	1
A53	D02_C4	Avisa de que su conexi—n moderna repara el sistema.	opaq	conexi—n	11	2680	1
A53	D24_C2	Cree que su cena mala decepciona al padre.	transp	cena	12	2564	1
A53	D25_C1	Comenta que el suelo blanco demanda mucho cuidado.	transp	suelo	13	2536	1
A53	D31_C3	Menciona que el ma’z morado lidera las ventas.	opaq	ma’z	14	2372	1
A53	D23_C3	Avisa de que el metal sagrado tiene poderes m‡gicos.	opaq	metal	15	2707	1
A53	D04_C2	Comenta que su silla rosada mejora la sala.	transp	silla	16	2907	1
A53	D20_C2	Sostiene que su taberna oscura necesita m‡s luz.	transp	taberna	17	2799	1
A53	D17_C1	Sugiere que el anillo rojo llama la atenci—n.	transp	anillo	18	2426	1
A53	D16_C2	Aclara que su escuela pœbica trae problemas.	transp	escuea	19	2990	1
A53	D28_C2	Opina que su novela tr‡gica divide al pueblo.	transp	novela	20	3132	1
A53	D30_C4	Declara que su tradici—n rara confunde al rey.	opaq	tradici—n	21	2594	1
A53	D13_C1	Opina que el cuero negro cautiva al cliente.	transp	cuero	22	2312	1
A53	D29_C1	Cuenta que el cuadro famoso representa su vida.	transp	cuadro	23	2495	1
A53	D22_C4	Dice que su naci—n limpia recibe m‡s turistas.	opaq	naci—n	24	2660	1
A53	D27_C3	Anuncia que el jard’n sucio disgusta al invitado.	opaq	jard’n	25	2930	1
A53	D26_C4	Piensa que su religi—n estricta molesta al joven.	opaq	religi—n	26	2793	1
A53	D07_C3	Descubre que el borrador bueno vale menos dinero.	opaq	borrador	27	2503	1
A53	D09_C1	Declara que el carro antiguo contamina el ambiente.	transp	carro	28	2714	1
A53	D32_C2	Indica que su revista c—mica divierte a todos.	transp	revista	29	2472	1
A53	D14_C4	Se–ala que su lecci—n perfecta requiere preparaci—n.	opaq	lecci—n	30	2706	1
A53	D21_C1	Demuestra que el zapato caro resiste la lluvia.	transp	zapato	31	2443	1
A53	D01_C1	Dice que el colegio nuevo cuesta mucho dinero.	transp	colegio	32	2802	1
A53	D03_C3	Cree que el pastel t’pico lleva demasiados ingredientes.	opaq	pastel	33	3226	1
A59	PD_C4	Dice que la mochila rallada contiene nuestras cosas	transp	mochila	1	33808	1
A59	D19_C2	Descubre que su sombrero barato soporta la lluvia.	transp	sombrero	2	2351	0
A59	D24_C1	Cree que la cena mala decepciona al padre.	transp	cena	3	1683	1
A59	D26_C3	Piensa que la religi—n estricta molesta al joven.	opaq	religi—n	4	2346	1
A59	D07_C2	Descubre que su teclado bueno vale menos dinero.	transp	teclado	5	1710	1
A59	D02_C3	Avisa de que la conexi—n moderna repara el sistema.	opaq	conexi—n	6	1991	1
A59	D01_C4	Dice que su proyector nuevo cuesta mucho dinero.	opaq	proyector	7	1758	1
A59	D06_C3	Piensa que la crisis larga produce insomnio.	opaq	crisis	8	1524	1
A59	D11_C2	Indica que su mercado peque–o contrata a estudiantes.	transp	mercado	9	1831	1
A59	D32_C1	Indica que la revista c—mica divierte a todos.	transp	revista	10	1636	1
A59	D17_C4	Sugiere que su pantal—n rojo llama la atenci—n.	opaq	pantal—n	11	1940	1
A59	D12_C1	Aclara que la palabra secreta resuelve el misterio.	transp	palabra	12	1610	1
A59	D22_C3	Dice que la naci—n limpia recibe m‡s turistas.	opaq	naci—n	13	1695	1
A59	D04_C1	Comenta que la silla rosada mejora la sala.	transp	silla	14	1317	1
A59	D29_C4	Cuenta que su lugar famoso representa su vida.	opaq	lugar	15	1454	0
A59	D15_C2	Explica que su tama–o mediano resulta m‡s pr‡ctico.	transp	tama–o	16	2173	1
A59	D23_C2	Avisa de que su templo sagrado tiene poderes m‡gicos.	transp	templo	17	2258	1
A59	D08_C1	Cuenta que la planta bonita gana el concurso.	transp	planta	18	1435	1
A59	D21_C4	Demuestra que su malet’n caro resiste la lluvia.	opaq	malet’n	19	3887	1
A59	D30_C3	Declara que la tradici—n rara confunde al rey.	opaq	tradici—n	20	1750	1
A59	D10_C3	Menciona que la nariz dorada causa sorpresa.	opaq	nariz	21	1396	1
A59	D25_C4	Comenta que su sill—n blanco demanda mucho cuidado.	opaq	sill—n	22	1475	1
A59	D31_C2	Menciona que su bolso morado lidera las ventas.	transp	bolso	23	1636	1
A59	D27_C2	Anuncia que su vaso sucio disgusta al invitado.	transp	vaso	24	1937	1
A59	D03_C2	Cree que su plato t’pico lleva demasiados ingredientes.	transp	plato	25	1479	1
A59	D18_C3	Manifiesta que la mansi—n preciosa sorprende al hombre.	opaq	mansi—n	26	2348	0
A59	D13_C4	Opina que su collar negro cautiva al cliente.	opaq	collar	27	1790	1
A59	D05_C4	Anuncia que su cristal roto crea m‡s basura.	opaq	cristal	28	2256	1
A59	D14_C3	Se–ala que la lecci—n perfecta requiere preparaci—n.	opaq	lecci—n	29	1815	1
A59	D16_C1	Aclara que la escuela pœblica trae problemas.	transp	escuela	30	1453	1
A59	D28_C1	Opina que la novela tr‡gica divide al pueblo.	transp	novela	31	1799	1
A59	D20_C1	Sostiene que la taberna oscura necesita m‡s luz.	transp	taberna	32	2398	1
A59	D09_C4	Declara que su cami—n antiguo contamina el ambiente.	opaq	cami—n	33	2115	1
A61	PD_C4	Dice que la mochila rallada contiene nuestras cosas	transp	mochila	1	4706	1
A61	D32_C2	Indica que su revista c—mica divierte a todos.	transp	revista	2	2369	1
A61	D28_C2	Opina que su novela tr‡gica divide al pueblo.	transp	novela	3	3067	1
A61	D08_C2	Cuenta que su planta bonita gana el concurso.	transp	planta	4	2780	1
A61	D01_C1	Dice que el colegio nuevo cuesta mucho dinero.	transp	colegio	5	5290	0
A61	D22_C4	Dice que su naci—n limpia recibe m‡s turistas.	opaq	naci—n	6	2777	1
A61	D23_C3	Avisa de que el metal sagrado tiene poderes m‡gicos.	opaq	metal	7	2332	1
A61	D13_C1	Opina que el cuero negro cautiva al cliente.	transp	cuero	8	2046	1
A61	D06_C4	Piensa que su crisis larga produce insomnio.	opaq	crisis	9	1913	1
A61	D04_C2	Comenta que su silla rosada mejora la sala.	transp	silla	10	2175	1
A61	D09_C1	Declara que el carro antiguo contamina el ambiente.	transp	carro	11	2806	1
A61	D14_C4	Se–ala que su lecci—n perfecta requiere preparaci—n.	opaq	lecci—n	12	2516	1
A61	D05_C1	Anuncia que el palo roto crea m‡s basura.	transp	palo	13	1941	1
A61	D26_C4	Piensa que su religi—n estricta molesta al joven.	opaq	religi—n	14	2285	1
A61	D20_C2	Sostiene que su taberna oscura necesita m‡s luz.	transp	taberna	15	1848	1
A61	D24_C2	Cree que su cena mala decepciona al padre.	transp	cena	16	1657	1
A61	D30_C4	Declara que su tradici—n rara confunde al rey.	opaq	tradici—n	17	2077	1
A61	D11_C3	Indica que el hospital peque–o contrata a estudiantes.	opaq	hospital	18	2515	1
A61	D27_C3	Anuncia que el jard’n sucio disgusta al invitado.	opaq	jard’n	19	2005	1
A61	D18_C4	Manifiesta que su mansi—n preciosa sorprende al hombre.	opaq	mansi—n	20	2028	1
A61	D02_C4	Avisa de que su conexi—n moderna repara el sistema.	opaq	conexi—n	21	2025	1
A61	D17_C1	Sugiere que el anillo rojo llama la atenci—n.	transp	anillo	22	2105	1
A61	D15_C3	Explica que el cintur—n mediano resulta m‡s pr‡ctico.	opaq	cintur—n	23	2460	1
A61	D16_C2	Aclara que su escuela pœbica trae problemas.	transp	escuea	24	2422	1
A61	D21_C1	Demuestra que el zapato caro resiste la lluvia.	transp	zapato	25	2418	1
A61	D10_C4	Menciona que su nariz dorada causa sorpresa.	opaq	nariz	26	1943	1
A61	D25_C1	Comenta que el suelo blanco demanda mucho cuidado.	transp	suelo	27	1570	1
A61	D03_C3	Cree que el pastel t’pico lleva demasiados ingredientes.	opaq	pastel	28	2269	1
A61	D19_C3	Descubre que el paraguas barato soporta la lluvia.	opaq	paraguas	29	3223	1
A61	D29_C1	Cuenta que el cuadro famoso representa su vida.	transp	cuadro	30	1642	1
A61	D07_C3	Descubre que el borrador bueno vale menos dinero.	opaq	borrador	31	1734	1
A61	D31_C3	Menciona que el ma’z morado lidera las ventas.	opaq	ma’z	32	1792	1
A61	D12_C2	Aclara que su palabra secreta resuelve el misterio.	transp	palabra	33	2281	1
B13	PD_C4	Dice que la mochila rallada contiene nuestras cosas	transp	mochila	1	5403	1
B13	D02_C3	Avisa de que la conexi—n moderna repara el sistema.	opaq	conexi—n	2	3271	1
B13	D27_C2	Anuncia que su vaso sucio disgusta al invitado.	transp	vaso	3	3470	1
B13	D32_C1	Indica que la revista c—mica divierte a todos.	transp	revista	4	2869	1
B13	D09_C4	Declara que su cami—n antiguo contamina el ambiente.	opaq	cami—n	5	2762	1
B13	D30_C3	Declara que la tradici—n rara confunde al rey.	opaq	tradici—n	6	3394	1
B13	D31_C2	Menciona que su bolso morado lidera las ventas.	transp	bolso	7	3451	1
B13	D07_C2	Descubre que su teclado bueno vale menos dinero.	transp	teclado	8	3250	1
B13	D08_C1	Cuenta que la planta bonita gana el concurso.	transp	planta	9	3089	1
B13	D22_C3	Dice que la naci—n limpia recibe m‡s turistas.	opaq	naci—n	10	3295	1
B13	D04_C1	Comenta que la silla rosada mejora la sala.	transp	silla	11	2585	1
B13	D19_C2	Descubre que su sombrero barato soporta la lluvia.	transp	sombrero	12	2815	1
B13	D01_C4	Dice que su proyector nuevo cuesta mucho dinero.	opaq	proyector	13	3885	1
B13	D23_C2	Avisa de que su templo sagrado tiene poderes m‡gicos.	transp	templo	14	3302	1
B13	D28_C1	Opina que la novela tr‡gica divide al pueblo.	transp	novela	15	3143	1
B13	D26_C3	Piensa que la religi—n estricta molesta al joven.	opaq	religi—n	16	3275	1
B13	D25_C4	Comenta que su sill—n blanco demanda mucho cuidado.	opaq	sill—n	17	2865	1
B13	D10_C3	Menciona que la nariz dorada causa sorpresa.	opaq	nariz	18	2925	1
B13	D15_C2	Explica que su tama–o mediano resulta m‡s pr‡ctico.	transp	tama–o	19	3117	1
B13	D12_C1	Aclara que la palabra secreta resuelve el misterio.	transp	palabra	20	3232	1
B13	D11_C2	Indica que su mercado peque–o contrata a estudiantes.	transp	mercado	21	3631	1
B13	D17_C4	Sugiere que su pantal—n rojo llama la atenci—n.	opaq	pantal—n	22	3208	1
B13	D18_C3	Manifiesta que la mansi—n preciosa sorprende al hombre.	opaq	mansi—n	23	3168	1
B13	D13_C4	Opina que su collar negro cautiva al cliente.	opaq	collar	24	3109	1
B13	D16_C1	Aclara que la escuela pœblica trae problemas.	transp	escuela	25	2958	1
B13	D05_C4	Anuncia que su cristal roto crea m‡s basura.	opaq	cristal	26	3147	1
B13	D14_C3	Se–ala que la lecci—n perfecta requiere preparaci—n.	opaq	lecci—n	27	3150	1
B13	D29_C4	Cuenta que su lugar famoso representa su vida.	opaq	lugar	28	3238	0
B13	D06_C3	Piensa que la crisis larga produce insomnio.	opaq	crisis	29	3159	1
B13	D20_C1	Sostiene que la taberna oscura necesita m‡s luz.	transp	taberna	30	3452	1
B13	D03_C2	Cree que su plato t’pico lleva demasiados ingredientes.	transp	plato	31	4328	1
B13	D21_C4	Demuestra que su malet’n caro resiste la lluvia.	opaq	malet’n	32	3169	1
B13	D24_C1	Cree que la cena mala decepciona al padre.	transp	cena	33	3155	1
B16	PD_C4	Dice que la mochila rallada contiene nuestras cosas	transp	mochila	1	5496	1
B16	D29_C1	Cuenta que el cuadro famoso representa su vida.	transp	cuadro	2	2589	0
B16	D19_C3	Descubre que el paraguas barato soporta la lluvia.	opaq	paraguas	3	2745	1
B16	D30_C4	Declara que su tradici—n rara confunde al rey.	opaq	tradici—n	4	3293	1
B16	D02_C4	Avisa de que su conexi—n moderna repara el sistema.	opaq	conexi—n	5	2970	1
B16	D26_C4	Piensa que su religi—n estricta molesta al joven.	opaq	religi—n	6	2789	1
B16	D10_C4	Menciona que su nariz dorada causa sorpresa.	opaq	nariz	7	2650	1
B16	D21_C1	Demuestra que el zapato caro resiste la lluvia.	transp	zapato	8	3094	1
B16	D08_C2	Cuenta que su planta bonita gana el concurso.	transp	planta	9	2982	1
B16	D22_C4	Dice que su naci—n limpia recibe m‡s turistas.	opaq	naci—n	10	2722	1
B16	D25_C1	Comenta que el suelo blanco demanda mucho cuidado.	transp	suelo	11	1831	1
B16	D18_C4	Manifiesta que su mansi—n preciosa sorprende al hombre.	opaq	mansi—n	12	5502	1
B16	D28_C2	Opina que su novela tr‡gica divide al pueblo.	transp	novela	13	2906	1
B16	D32_C2	Indica que su revista c—mica divierte a todos.	transp	revista	14	2698	1
B16	D06_C4	Piensa que su crisis larga produce insomnio.	opaq	crisis	15	2387	1
B16	D11_C3	Indica que el hospital peque–o contrata a estudiantes.	opaq	hospital	16	3335	1
B16	D07_C3	Descubre que el borrador bueno vale menos dinero.	opaq	borrador	17	3499	1
B16	D09_C1	Declara que el carro antiguo contamina el ambiente.	transp	carro	18	3696	1
B16	D04_C2	Comenta que su silla rosada mejora la sala.	transp	silla	19	2432	1
B16	D23_C3	Avisa de que el metal sagrado tiene poderes m‡gicos.	opaq	metal	20	2808	1
B16	D03_C3	Cree que el pastel t’pico lleva demasiados ingredientes.	opaq	pastel	21	3453	1
B16	D05_C1	Anuncia que el palo roto crea m‡s basura.	transp	palo	22	2271	1
B16	D24_C2	Cree que su cena mala decepciona al padre.	transp	cena	23	2602	1
B16	D31_C3	Menciona que el ma’z morado lidera las ventas.	opaq	ma’z	24	2669	1
B16	D17_C1	Sugiere que el anillo rojo llama la atenci—n.	transp	anillo	25	3075	1
B16	D15_C3	Explica que el cintur—n mediano resulta m‡s pr‡ctico.	opaq	cintur—n	26	2977	1
B16	D20_C2	Sostiene que su taberna oscura necesita m‡s luz.	transp	taberna	27	2970	1
B16	D01_C1	Dice que el colegio nuevo cuesta mucho dinero.	transp	colegio	28	2072	1
B16	D14_C4	Se–ala que su lecci—n perfecta requiere preparaci—n.	opaq	lecci—n	29	3188	1
B16	D27_C3	Anuncia que el jard’n sucio disgusta al invitado.	opaq	jard’n	30	3216	1
B16	D13_C1	Opina que el cuero negro cautiva al cliente.	transp	cuero	31	2551	1
B16	D12_C2	Aclara que su palabra secreta resuelve el misterio.	transp	palabra	32	3017	1
B16	D16_C2	Aclara que su escuela pœbica trae problemas.	transp	escuea	33	2680	1
B19	PD_C4	Dice que la mochila rallada contiene nuestras cosas	transp	mochila	1	17093	1
B19	D27_C4	Anuncia que su jard’n sucio disgusta al invitado.	opaq	jard’n	2	5925	0
B19	D01_C2	Dice que su colegio nuevo cuesta mucho dinero.	transp	colegio	3	2889	1
B19	D24_C3	Cree que la acci—n mala decepciona al padre.	opaq	acci—n	4	2580	1
B19	D17_C2	Sugiere que su anillo rojo llama la atenci—n.	transp	anillo	5	1687	1
B19	D32_C3	Indica que la reuni—n c—mica divierte a todos.	opaq	reuni—n	6	2371	1
B19	D08_C3	Cuenta que la canci—n bonita gana el concurso.	opaq	canci—n	7	1938	1
B19	D28_C3	Opina que la situaci—n tr‡gica divide al pueblo.	opaq	situaci—n	8	2983	1
B19	D05_C2	Anuncia que su palo roto crea m‡s basura.	transp	palo	9	2214	1
B19	D14_C1	Se–ala que la fiesta perfecta requiere preparaci—n.	transp	fiesta	10	1796	1
B19	D10_C1	Menciona que la falda dorada causa sorpresa.	transp	falda	11	2273	1
B19	D07_C4	Descubre que su borrador bueno vale menos dinero.	opaq	borrador	12	2511	1
B19	D12_C3	Aclara que la imagen secreta resuelve el misterio.	opaq	imagen	13	2745	1
B19	D22_C1	Dice que la sala limpia recibe m‡s turistas.	transp	sala	14	2167	1
B19	D04_C3	Comenta que la pared rosada mejora la sala.	opaq	pared	15	2108	1
B19	D18_C1	Manifiesta que la piedra preciosa sorprende al hombre.	transp	piedra	16	3039	1
B19	D13_C2	Opina que su cuero negro cautiva al cliente.	transp	cuero	17	1821	1
B19	D26_C1	Piensa que la iglesia estricta molesta al joven.	transp	iglesia	18	1920	1
B19	D20_C3	Sostiene que la estaci—n oscura necesita m‡s luz.	opaq	estaci—n	19	2749	1
B19	D21_C2	Demuestra que su zapato caro resiste la lluvia.	transp	zapato	20	1783	1
B19	D03_C4	Cree que su pastel t’pico lleva demasiados ingredientes.	opaq	pastel	21	1791	1
B19	D19_C4	Descubre que su paraguas barato soporta la lluvia.	opaq	paraguas	22	3090	1
B19	D23_C4	Avisa de que su metal sagrado tiene poderes m‡gicos.	opaq	metal	23	2917	1
B19	D15_C4	Explica que su cintur—n mediano resulta m‡s pr‡ctico.	opaq	cintur—n	24	3199	1
B19	D30_C1	Declara que la l‡mpara rara confunde al rey.	transp	l‡mpara	25	2367	1
B19	D31_C4	Menciona que su ma’z morado lidera las ventas.	opaq	ma’z	26	2278	1
B19	D29_C2	Cuenta que su cuadro famoso representa su vida.	transp	cuadro	27	2437	1
B19	D02_C1	Avisa de que la m‡quina moderna repara el sistema.	transp	m‡quina	28	2392	1
B19	D09_C2	Declara que su carro antiguo contamina el ambiente.	transp	carro	29	2340	1
B19	D25_C2	Comenta que su suelo blanco demanda mucho cuidado.	transp	suelo	30	1318	1
B19	D06_C1	Piensa que la charla larga produce insomnio.	transp	charla	31	2226	1
B19	D11_C4	Indica que su hospital peque–o contrata a estudiantes.	opaq	hospital	32	2891	1
B19	D16_C3	Aclara que la opini—n pœblica trae problemas.	opaq	opini—n	33	2304	1
B24	PD_C4	Dice que la mochila rallada contiene nuestras cosas	transp	mochila	1	6459	1
B24	D03_C3	Cree que el pastel t’pico lleva demasiados ingredientes.	opaq	pastel	2	2403	1
B24	D18_C4	Manifiesta que su mansi—n preciosa sorprende al hombre.	opaq	mansi—n	3	6017	1
B24	D05_C1	Anuncia que el palo roto crea m‡s basura.	transp	palo	4	1293	1
B24	D09_C1	Declara que el carro antiguo contamina el ambiente.	transp	carro	5	2749	1
B24	D24_C2	Cree que su cena mala decepciona al padre.	transp	cena	6	2116	1
B24	D20_C2	Sostiene que su taberna oscura necesita m‡s luz.	transp	taberna	7	2682	1
B24	D27_C3	Anuncia que el jard’n sucio disgusta al invitado.	opaq	jard’n	8	1600	1
B24	D23_C3	Avisa de que el metal sagrado tiene poderes m‡gicos.	opaq	metal	9	2069	1
B24	D17_C1	Sugiere que el anillo rojo llama la atenci—n.	transp	anillo	10	1212	1
B24	D25_C1	Comenta que el suelo blanco demanda mucho cuidado.	transp	suelo	11	1313	1
B24	D22_C4	Dice que su naci—n limpia recibe m‡s turistas.	opaq	naci—n	12	1678	1
B24	D13_C1	Opina que el cuero negro cautiva al cliente.	transp	cuero	13	1621	1
B24	D06_C4	Piensa que su crisis larga produce insomnio.	opaq	crisis	14	1711	1
B24	D02_C4	Avisa de que su conexi—n moderna repara el sistema.	opaq	conexi—n	15	2426	1
B24	D07_C3	Descubre que el borrador bueno vale menos dinero.	opaq	borrador	16	1324	1
B24	D30_C4	Declara que su tradici—n rara confunde al rey.	opaq	tradici—n	17	2138	1
B24	D14_C4	Se–ala que su lecci—n perfecta requiere preparaci—n.	opaq	lecci—n	18	2807	1
B24	D21_C1	Demuestra que el zapato caro resiste la lluvia.	transp	zapato	19	2036	1
B24	D31_C3	Menciona que el ma’z morado lidera las ventas.	opaq	ma’z	20	1848	1
B24	D04_C2	Comenta que su silla rosada mejora la sala.	transp	silla	21	2101	1
B24	D28_C2	Opina que su novela tr‡gica divide al pueblo.	transp	novela	22	2217	1
B24	D32_C2	Indica que su revista c—mica divierte a todos.	transp	revista	23	2270	1
B24	D10_C4	Menciona que su nariz dorada causa sorpresa.	opaq	nariz	24	1945	1
B24	D01_C1	Dice que el colegio nuevo cuesta mucho dinero.	transp	colegio	25	1290	1
B24	D16_C2	Aclara que su escuela pœbica trae problemas.	transp	escuea	26	1677	1
B24	D29_C1	Cuenta que el cuadro famoso representa su vida.	transp	cuadro	27	1212	1
B24	D15_C3	Explica que el cintur—n mediano resulta m‡s pr‡ctico.	opaq	cintur—n	28	2098	1
B24	D26_C4	Piensa que su religi—n estricta molesta al joven.	opaq	religi—n	29	2097	1
B24	D11_C3	Indica que el hospital peque–o contrata a estudiantes.	opaq	hospital	30	1891	1
B24	D08_C2	Cuenta que su planta bonita gana el concurso.	transp	planta	31	1398	1
B24	D12_C2	Aclara que su palabra secreta resuelve el misterio.	transp	palabra	32	1679	1
B24	D19_C3	Descubre que el paraguas barato soporta la lluvia.	opaq	paraguas	33	1839	1
B27	PD_C4	Dice que la mochila rallada contiene nuestras cosas	transp	mochila	1	5044	1
B27	D22_C1	Dice que la sala limpia recibe m‡s turistas.	transp	sala	2	2828	1
B27	D12_C3	Aclara que la imagen secreta resuelve el misterio.	opaq	imagen	3	2934	1
B27	D06_C1	Piensa que la charla larga produce insomnio.	transp	charla	4	2355	1
B27	D24_C3	Cree que la acci—n mala decepciona al padre.	opaq	acci—n	5	2547	1
B27	D14_C1	Se–ala que la fiesta perfecta requiere preparaci—n.	transp	fiesta	6	3324	1
B27	D07_C4	Descubre que su borrador bueno vale menos dinero.	opaq	borrador	7	2745	1
B27	D26_C1	Piensa que la iglesia estricta molesta al joven.	transp	iglesia	8	2737	1
B27	D32_C3	Indica que la reuni—n c—mica divierte a todos.	opaq	reuni—n	9	2680	1
B27	D15_C4	Explica que su cintur—n mediano resulta m‡s pr‡ctico.	opaq	cintur—n	10	3237	1
B27	D01_C2	Dice que su colegio nuevo cuesta mucho dinero.	transp	colegio	11	3064	1
B27	D05_C2	Anuncia que su palo roto crea m‡s basura.	transp	palo	12	2593	1
B27	D23_C4	Avisa de que su metal sagrado tiene poderes m‡gicos.	opaq	metal	13	3432	1
B27	D31_C4	Menciona que su ma’z morado lidera las ventas.	opaq	ma’z	14	2534	1
B27	D25_C2	Comenta que su suelo blanco demanda mucho cuidado.	transp	suelo	15	2990	1
B27	D08_C3	Cuenta que la canci—n bonita gana el concurso.	opaq	canci—n	16	3254	1
B27	D30_C1	Declara que la l‡mpara rara confunde al rey.	transp	l‡mpara	17	2625	1
B27	D09_C2	Declara que su carro antiguo contamina el ambiente.	transp	carro	18	3113	1
B27	D20_C3	Sostiene que la estaci—n oscura necesita m‡s luz.	opaq	estaci—n	19	3296	1
B27	D27_C4	Anuncia que su jard’n sucio disgusta al invitado.	opaq	jard’n	20	3099	1
B27	D29_C2	Cuenta que su cuadro famoso representa su vida.	transp	cuadro	21	2661	1
B27	D10_C1	Menciona que la falda dorada causa sorpresa.	transp	falda	22	2529	1
B27	D18_C1	Manifiesta que la piedra preciosa sorprende al hombre.	transp	piedra	23	2796	1
B27	D19_C4	Descubre que su paraguas barato soporta la lluvia.	opaq	paraguas	24	2901	1
B27	D02_C1	Avisa de que la m‡quina moderna repara el sistema.	transp	m‡quina	25	2523	1
B27	D11_C4	Indica que su hospital peque–o contrata a estudiantes.	opaq	hospital	26	3047	1
B27	D28_C3	Opina que la situaci—n tr‡gica divide al pueblo.	opaq	situaci—n	27	3089	1
B27	D16_C3	Aclara que la opini—n pœblica trae problemas.	opaq	opini—n	28	2687	1
B27	D17_C2	Sugiere que su anillo rojo llama la atenci—n.	transp	anillo	29	2631	1
B27	D04_C3	Comenta que la pared rosada mejora la sala.	opaq	pared	30	2488	1
B27	D21_C2	Demuestra que su zapato caro resiste la lluvia.	transp	zapato	31	2840	1
B27	D13_C2	Opina que su cuero negro cautiva al cliente.	transp	cuero	32	2727	1
B27	D03_C4	Cree que su pastel t’pico lleva demasiados ingredientes.	opaq	pastel	33	3580	1
B29	PD_C4	Dice que la mochila rallada contiene nuestras cosas	transp	mochila	1	6027	0
B29	D07_C2	Descubre que su teclado bueno vale menos dinero.	transp	teclado	2	2701	1
B29	D06_C3	Piensa que la crisis larga produce insomnio.	opaq	crisis	3	2130	1
B29	D26_C3	Piensa que la religi—n estricta molesta al joven.	opaq	religi—n	4	2478	1
B29	D24_C1	Cree que la cena mala decepciona al padre.	transp	cena	5	2005	1
B29	D16_C1	Aclara que la escuela pœblica trae problemas.	transp	escuela	6	2603	1
B29	D03_C2	Cree que su plato t’pico lleva demasiados ingredientes.	transp	plato	7	3005	1
B29	D25_C4	Comenta que su sill—n blanco demanda mucho cuidado.	opaq	sill—n	8	2881	1
B29	D02_C3	Avisa de que la conexi—n moderna repara el sistema.	opaq	conexi—n	9	2730	1
B29	D15_C2	Explica que su tama–o mediano resulta m‡s pr‡ctico.	transp	tama–o	10	2774	1
B29	D32_C1	Indica que la revista c—mica divierte a todos.	transp	revista	11	2625	1
B29	D22_C3	Dice que la naci—n limpia recibe m‡s turistas.	opaq	naci—n	12	2942	1
B29	D09_C4	Declara que su cami—n antiguo contamina el ambiente.	opaq	cami—n	13	2778	0
B29	D19_C2	Descubre que su sombrero barato soporta la lluvia.	transp	sombrero	14	2674	1
B29	D14_C3	Se–ala que la lecci—n perfecta requiere preparaci—n.	opaq	lecci—n	15	2883	1
B29	D29_C4	Cuenta que su lugar famoso representa su vida.	opaq	lugar	16	2422	1
B29	D30_C3	Declara que la tradici—n rara confunde al rey.	opaq	tradici—n	17	2663	1
B29	D04_C1	Comenta que la silla rosada mejora la sala.	transp	silla	18	2237	1
B29	D28_C1	Opina que la novela tr‡gica divide al pueblo.	transp	novela	19	2603	1
B29	D08_C1	Cuenta que la planta bonita gana el concurso.	transp	planta	20	2715	1
B29	D20_C1	Sostiene que la taberna oscura necesita m‡s luz.	transp	taberna	21	2790	1
B29	D13_C4	Opina que su collar negro cautiva al cliente.	opaq	collar	22	2688	1
B29	D10_C3	Menciona que la nariz dorada causa sorpresa.	opaq	nariz	23	2466	1
B29	D01_C4	Dice que su proyector nuevo cuesta mucho dinero.	opaq	proyector	24	2694	1
B29	D31_C2	Menciona que su bolso morado lidera las ventas.	transp	bolso	25	2707	1
B29	D18_C3	Manifiesta que la mansi—n preciosa sorprende al hombre.	opaq	mansi—n	26	2677	1
B29	D23_C2	Avisa de que su templo sagrado tiene poderes m‡gicos.	transp	templo	27	2755	1
B29	D11_C2	Indica que su mercado peque–o contrata a estudiantes.	transp	mercado	28	3153	1
B29	D27_C2	Anuncia que su vaso sucio disgusta al invitado.	transp	vaso	29	3005	1
B29	D12_C1	Aclara que la palabra secreta resuelve el misterio.	transp	palabra	30	2799	1
B29	D17_C4	Sugiere que su pantal—n rojo llama la atenci—n.	opaq	pantal—n	31	2186	1
B29	D21_C4	Demuestra que su malet’n caro resiste la lluvia.	opaq	malet’n	32	2496	1
B29	D05_C4	Anuncia que su cristal roto crea m‡s basura.	opaq	cristal	33	2693	1
B31	PD_C4	Dice que la mochila rallada contiene nuestras cosas	transp	mochila	1	6760	1
B31	D20_C3	Sostiene que la estaci—n oscura necesita m‡s luz.	opaq	estaci—n	2	3320	1
B31	D28_C3	Opina que la situaci—n tr‡gica divide al pueblo.	opaq	situaci—n	3	4022	1
B31	D09_C2	Declara que su carro antiguo contamina el ambiente.	transp	carro	4	3391	1
B31	D25_C2	Comenta que su suelo blanco demanda mucho cuidado.	transp	suelo	5	3190	1
B31	D03_C4	Cree que su pastel t’pico lleva demasiados ingredientes.	opaq	pastel	6	3553	1
B31	D12_C3	Aclara que la imagen secreta resuelve el misterio.	opaq	imagen	7	2766	1
B31	D01_C2	Dice que su colegio nuevo cuesta mucho dinero.	transp	colegio	8	2858	1
B31	D19_C4	Descubre que su paraguas barato soporta la lluvia.	opaq	paraguas	9	3031	1
B31	D23_C4	Avisa de que su metal sagrado tiene poderes m‡gicos.	opaq	metal	10	3570	1
B31	D10_C1	Menciona que la falda dorada causa sorpresa.	transp	falda	11	2796	1
B31	D32_C3	Indica que la reuni—n c—mica divierte a todos.	opaq	reuni—n	12	2781	1
B31	D30_C1	Declara que la l‡mpara rara confunde al rey.	transp	l‡mpara	13	2515	1
B31	D31_C4	Menciona que su ma’z morado lidera las ventas.	opaq	ma’z	14	3022	1
B31	D24_C3	Cree que la acci—n mala decepciona al padre.	opaq	acci—n	15	2962	1
B31	D16_C3	Aclara que la opini—n pœblica trae problemas.	opaq	opini—n	16	3541	1
B31	D06_C1	Piensa que la charla larga produce insomnio.	transp	charla	17	2561	1
B31	D08_C3	Cuenta que la canci—n bonita gana el concurso.	opaq	canci—n	18	3120	1
B31	D13_C2	Opina que su cuero negro cautiva al cliente.	transp	cuero	19	3673	1
B31	D27_C4	Anuncia que su jard’n sucio disgusta al invitado.	opaq	jard’n	20	3611	1
B31	D14_C1	Se–ala que la fiesta perfecta requiere preparaci—n.	transp	fiesta	21	3150	1
B31	D26_C1	Piensa que la iglesia estricta molesta al joven.	transp	iglesia	22	3008	1
B31	D05_C2	Anuncia que su palo roto crea m‡s basura.	transp	palo	23	2993	1
B31	D15_C4	Explica que su cintur—n mediano resulta m‡s pr‡ctico.	opaq	cintur—n	24	4201	1
B31	D07_C4	Descubre que su borrador bueno vale menos dinero.	opaq	borrador	25	2622	1
B31	D18_C1	Manifiesta que la piedra preciosa sorprende al hombre.	transp	piedra	26	3862	1
B31	D29_C2	Cuenta que su cuadro famoso representa su vida.	transp	cuadro	27	5637	1
B31	D22_C1	Dice que la sala limpia recibe m‡s turistas.	transp	sala	28	3137	1
B31	D21_C2	Demuestra que su zapato caro resiste la lluvia.	transp	zapato	29	2996	1
B31	D17_C2	Sugiere que su anillo rojo llama la atenci—n.	transp	anillo	30	2295	1
B31	D04_C3	Comenta que la pared rosada mejora la sala.	opaq	pared	31	2600	1
B31	D02_C1	Avisa de que la m‡quina moderna repara el sistema.	transp	m‡quina	32	3091	1
B31	D11_C4	Indica que su hospital peque–o contrata a estudiantes.	opaq	hospital	33	3890	1
B34	PD_C4	Dice que la mochila rallada contiene nuestras cosas	transp	mochila	1	4920	1
B34	D17_C3	Sugiere que el pantal—n rojo llama la atenci—n.	opaq	pantal—n	2	1549	1
B34	D11_C1	Indica que el mercado peque–o contrata a estudiantes.	transp	mercado	3	1971	1
B34	D32_C4	Indica que su reuni—n c—mica divierte a todos.	opaq	reuni—n	4	2637	1
B34	D09_C3	Declara que el cami—n antiguo contamina el ambiente.	opaq	cami—n	5	3343	0
B34	D23_C1	Avisa de que el templo sagrado tiene poderes m‡gicos.	transp	templo	6	2852	1
B34	D25_C3	Comenta que el sill—n blanco demanda mucho cuidado.	opaq	sill—n	7	2836	1
B34	D24_C4	Cree que su acci—n mala decepciona al padre.	opaq	acci—n	8	2620	1
B34	D16_C4	Aclara que su opini—n pœblica trae problemas.	opaq	opini—n	9	2770	1
B34	D19_C1	Descubre que el sombrero barato soporta la lluvia.	transp	sombrero	10	3049	1
B34	D12_C4	Aclara que su imagen secreta resuelve el misterio.	opaq	imagen	11	2937	1
B34	D29_C3	Cuenta que el lugar famoso representa su vida.	opaq	lugar	12	2377	1
B34	D22_C2	Dice que su sala limpia recibe m‡s turistas.	transp	sala	13	2656	1
B34	D20_C4	Sostiene que su estaci—n oscura necesita m‡s luz.	opaq	estaci—n	14	2987	1
B34	D08_C4	Cuenta que su canci—n bonita gana el concurso.	opaq	canci—n	15	2780	1
B34	D21_C3	Demuestra que el malet’n caro resiste la lluvia.	opaq	malet’n	16	2784	1
B34	D03_C1	Cree que el plato t’pico lleva demasiados ingredientes.	transp	plato	17	3000	1
B34	D02_C2	Avisa de que su m‡quina moderna repara el sistema.	transp	m‡quina	18	2584	1
B34	D28_C4	Opina que su situaci—n tr‡gica divide al pueblo.	opaq	situaci—n	19	2730	1
B34	D01_C3	Dice que el proyector nuevo cuesta mucho dinero.	opaq	proyector	20	1799	1
B34	D31_C1	Menciona que el bolso morado lidera las ventas.	transp	bolso	21	2726	1
B34	D14_C2	Se–ala que su fiesta perfecta requiere preparaci—n.	transp	fiesta	22	3199	1
B34	D10_C2	Menciona que su falda dorada causa sorpresa.	transp	falda	23	2582	1
B34	D30_C2	Declara que su l‡mpara rara confunde al rey.	transp	l‡mpara	24	2640	1
B34	D18_C2	Manifiesta que su piedra preciosa sorprende al hombre.	transp	piedra	25	2825	1
B34	D04_C4	Comenta que su pared rosada mejora la sala.	opaq	pared	26	2673	1
B34	D27_C1	Anuncia que el vaso sucio disgusta al invitado.	transp	vaso	27	2966	1
B34	D07_C1	Descubre que el teclado bueno vale menos dinero.	transp	teclado	28	3429	1
B34	D13_C3	Opina que el collar negro cautiva al cliente.	opaq	collar	29	2858	1
B34	D05_C3	Anuncia que el cristal roto crea m‡s basura.	opaq	cristal	30	2633	1
B34	D26_C2	Piensa que su iglesia estricta molesta al joven.	transp	iglesia	31	2471	1
B34	D06_C2	Piensa que su charla larga produce insomnio.	transp	charla	32	2136	1
B34	D15_C1	Explica que el tama–o mediano resulta m‡s pr‡ctico.	transp	tama–o	33	2602	0
B37	PD_C4	Dice que la mochila rallada contiene nuestras cosas	transp	mochila	1	5785	1
B37	D23_C2	Avisa de que su templo sagrado tiene poderes m‡gicos.	transp	templo	2	2383	1
B37	D27_C2	Anuncia que su vaso sucio disgusta al invitado.	transp	vaso	3	2969	1
B37	D26_C3	Piensa que la religi—n estricta molesta al joven.	opaq	religi—n	4	3448	1
B37	D02_C3	Avisa de que la conexi—n moderna repara el sistema.	opaq	conexi—n	5	3834	1
B37	D18_C3	Manifiesta que la mansi—n preciosa sorprende al hombre.	opaq	mansi—n	6	3161	0
B37	D08_C1	Cuenta que la planta bonita gana el concurso.	transp	planta	7	3282	1
B37	D28_C1	Opina que la novela tr‡gica divide al pueblo.	transp	novela	8	3101	1
B37	D09_C4	Declara que su cami—n antiguo contamina el ambiente.	opaq	cami—n	9	3788	1
B37	D03_C2	Cree que su plato t’pico lleva demasiados ingredientes.	transp	plato	10	1858	1
B37	D25_C4	Comenta que su sill—n blanco demanda mucho cuidado.	opaq	sill—n	11	1852	1
B37	D20_C1	Sostiene que la taberna oscura necesita m‡s luz.	transp	taberna	12	1783	1
B37	D11_C2	Indica que su mercado peque–o contrata a estudiantes.	transp	mercado	13	3762	1
B37	D13_C4	Opina que su collar negro cautiva al cliente.	opaq	collar	14	3845	1
B37	D17_C4	Sugiere que su pantal—n rojo llama la atenci—n.	opaq	pantal—n	15	2313	1
B37	D22_C3	Dice que la naci—n limpia recibe m‡s turistas.	opaq	naci—n	16	1964	1
B37	D29_C4	Cuenta que su lugar famoso representa su vida.	opaq	lugar	17	1253	1
B37	D10_C3	Menciona que la nariz dorada causa sorpresa.	opaq	nariz	18	2039	1
B37	D16_C1	Aclara que la escuela pœblica trae problemas.	transp	escuela	19	1647	1
B37	D19_C2	Descubre que su sombrero barato soporta la lluvia.	transp	sombrero	20	4948	1
B37	D24_C1	Cree que la cena mala decepciona al padre.	transp	cena	21	1440	1
B37	D30_C3	Declara que la tradici—n rara confunde al rey.	opaq	tradici—n	22	2615	1
B37	D01_C4	Dice que su proyector nuevo cuesta mucho dinero.	opaq	proyector	23	1826	1
B37	D07_C2	Descubre que su teclado bueno vale menos dinero.	transp	teclado	24	4001	1
B37	D31_C2	Menciona que su bolso morado lidera las ventas.	transp	bolso	25	1518	1
B37	D04_C1	Comenta que la silla rosada mejora la sala.	transp	silla	26	2378	1
B37	D15_C2	Explica que su tama–o mediano resulta m‡s pr‡ctico.	transp	tama–o	27	2972	1
B37	D05_C4	Anuncia que su cristal roto crea m‡s basura.	opaq	cristal	28	1630	1
B37	D32_C1	Indica que la revista c—mica divierte a todos.	transp	revista	29	2064	1
B37	D12_C1	Aclara que la palabra secreta resuelve el misterio.	transp	palabra	30	1735	1
B37	D06_C3	Piensa que la crisis larga produce insomnio.	opaq	crisis	31	1567	1
B37	D21_C4	Demuestra que su malet’n caro resiste la lluvia.	opaq	malet’n	32	1847	1
B37	D14_C3	Se–ala que la lecci—n perfecta requiere preparaci—n.	opaq	lecci—n	33	1836	1
B38	PD_C4	Dice que la mochila rallada contiene nuestras cosas	transp	mochila	1	4912	1
B38	D12_C4	Aclara que su imagen secreta resuelve el misterio.	opaq	imagen	2	1883	1
B38	D24_C4	Cree que su acci—n mala decepciona al padre.	opaq	acci—n	3	1240	1
B38	D05_C3	Anuncia que el cristal roto crea m‡s basura.	opaq	cristal	4	1363	1
B38	D21_C3	Demuestra que el malet’n caro resiste la lluvia.	opaq	malet’n	5	1822	1
B38	D26_C2	Piensa que su iglesia estricta molesta al joven.	transp	iglesia	6	1749	1
B38	D07_C1	Descubre que el teclado bueno vale menos dinero.	transp	teclado	7	1436	1
B38	D18_C2	Manifiesta que su piedra preciosa sorprende al hombre.	transp	piedra	8	1718	1
B38	D10_C2	Menciona que su falda dorada causa sorpresa.	transp	falda	9	1544	1
B38	D13_C3	Opina que el collar negro cautiva al cliente.	opaq	collar	10	1291	1
B38	D15_C1	Explica que el tama–o mediano resulta m‡s pr‡ctico.	transp	tama–o	11	1507	1
B38	D09_C3	Declara que el cami—n antiguo contamina el ambiente.	opaq	cami—n	12	1478	1
B38	D31_C1	Menciona que el bolso morado lidera las ventas.	transp	bolso	13	1327	1
B38	D23_C1	Avisa de que el templo sagrado tiene poderes m‡gicos.	transp	templo	14	1465	1
B38	D16_C4	Aclara que su opini—n pœblica trae problemas.	opaq	opini—n	15	1494	1
B38	D29_C3	Cuenta que el lugar famoso representa su vida.	opaq	lugar	16	1346	0
B38	D06_C2	Piensa que su charla larga produce insomnio.	transp	charla	17	1416	1
B38	D08_C4	Cuenta que su canci—n bonita gana el concurso.	opaq	canci—n	18	1611	1
B38	D22_C2	Dice que su sala limpia recibe m‡s turistas.	transp	sala	19	1354	1
B38	D27_C1	Anuncia que el vaso sucio disgusta al invitado.	transp	vaso	20	1374	1
B38	D04_C4	Comenta que su pared rosada mejora la sala.	opaq	pared	21	1496	1
B38	D14_C2	Se–ala que su fiesta perfecta requiere preparaci—n.	transp	fiesta	22	1516	1
B38	D03_C1	Cree que el plato t’pico lleva demasiados ingredientes.	transp	plato	23	1318	1
B38	D11_C1	Indica que el mercado peque–o contrata a estudiantes.	transp	mercado	24	1466	1
B38	D02_C2	Avisa de que su m‡quina moderna repara el sistema.	transp	m‡quina	25	1759	1
B38	D19_C1	Descubre que el sombrero barato soporta la lluvia.	transp	sombrero	26	1431	1
B38	D17_C3	Sugiere que el pantal—n rojo llama la atenci—n.	opaq	pantal—n	27	1348	1
B38	D32_C4	Indica que su reuni—n c—mica divierte a todos.	opaq	reuni—n	28	1589	1
B38	D01_C3	Dice que el proyector nuevo cuesta mucho dinero.	opaq	proyector	29	1882	1
B38	D20_C4	Sostiene que su estaci—n oscura necesita m‡s luz.	opaq	estaci—n	30	1683	1
B38	D30_C2	Declara que su l‡mpara rara confunde al rey.	transp	l‡mpara	31	1535	1
B38	D28_C4	Opina que su situaci—n tr‡gica divide al pueblo.	opaq	situaci—n	32	1703	1
B38	D25_C3	Comenta que el sill—n blanco demanda mucho cuidado.	opaq	sill—n	33	1262	1
B4	PD_C4	Dice que la mochila rallada contiene nuestras cosas	transp	mochila	1	7201	1
B4	D20_C2	Sostiene que su taberna oscura necesita m‡s luz.	transp	taberna	2	3410	1
B4	D19_C3	Descubre que el paraguas barato soporta la lluvia.	opaq	paraguas	3	2854	1
B4	D09_C1	Declara que el carro antiguo contamina el ambiente.	transp	carro	4	3277	1
B4	D03_C3	Cree que el pastel t’pico lleva demasiados ingredientes.	opaq	pastel	5	3339	1
B4	D05_C1	Anuncia que el palo roto crea m‡s basura.	transp	palo	6	2533	1
B4	D08_C2	Cuenta que su planta bonita gana el concurso.	transp	planta	7	2737	1
B4	D24_C2	Cree que su cena mala decepciona al padre.	transp	cena	8	2468	1
B4	D18_C4	Manifiesta que su mansi—n preciosa sorprende al hombre.	opaq	mansi—n	9	2715	1
B4	D32_C2	Indica que su revista c—mica divierte a todos.	transp	revista	10	2371	1
B4	D22_C4	Dice que su naci—n limpia recibe m‡s turistas.	opaq	naci—n	11	2687	1
B4	D11_C3	Indica que el hospital peque–o contrata a estudiantes.	opaq	hospital	12	2871	1
B4	D27_C3	Anuncia que el jard’n sucio disgusta al invitado.	opaq	jard’n	13	2528	1
B4	D01_C1	Dice que el colegio nuevo cuesta mucho dinero.	transp	colegio	14	1846	1
B4	D29_C1	Cuenta que el cuadro famoso representa su vida.	transp	cuadro	15	1455	1
B4	D15_C3	Explica que el cintur—n mediano resulta m‡s pr‡ctico.	opaq	cintur—n	16	2134	1
B4	D10_C4	Menciona que su nariz dorada causa sorpresa.	opaq	nariz	17	2227	1
B4	D13_C1	Opina que el cuero negro cautiva al cliente.	transp	cuero	18	1337	1
B4	D16_C2	Aclara que su escuela pœbica trae problemas.	transp	escuea	19	1391	1
B4	D28_C2	Opina que su novela tr‡gica divide al pueblo.	transp	novela	20	2047	1
B4	D06_C4	Piensa que su crisis larga produce insomnio.	opaq	crisis	21	1429	1
B4	D23_C3	Avisa de que el metal sagrado tiene poderes m‡gicos.	opaq	metal	22	2545	1
B4	D26_C4	Piensa que su religi—n estricta molesta al joven.	opaq	religi—n	23	1645	1
B4	D12_C2	Aclara que su palabra secreta resuelve el misterio.	transp	palabra	24	1497	1
B4	D25_C1	Comenta que el suelo blanco demanda mucho cuidado.	transp	suelo	25	1762	1
B4	D14_C4	Se–ala que su lecci—n perfecta requiere preparaci—n.	opaq	lecci—n	26	1868	1
B4	D17_C1	Sugiere que el anillo rojo llama la atenci—n.	transp	anillo	27	1564	1
B4	D31_C3	Menciona que el ma’z morado lidera las ventas.	opaq	ma’z	28	1971	1
B4	D30_C4	Declara que su tradici—n rara confunde al rey.	opaq	tradici—n	29	1654	1
B4	D04_C2	Comenta que su silla rosada mejora la sala.	transp	silla	30	1649	1
B4	D21_C1	Demuestra que el zapato caro resiste la lluvia.	transp	zapato	31	2013	1
B4	D02_C4	Avisa de que su conexi—n moderna repara el sistema.	opaq	conexi—n	32	1773	1
B4	D07_C3	Descubre que el borrador bueno vale menos dinero.	opaq	borrador	33	1935	1
B40	PD_C4	Dice que la mochila rallada contiene nuestras cosas	transp	mochila	1	4704	1
B40	D09_C1	Declara que el carro antiguo contamina el ambiente.	transp	carro	2	482	0
B40	D14_C4	Se–ala que su lecci—n perfecta requiere preparaci—n.	opaq	lecci—n	3	1389	0
B40	D13_C1	Opina que el cuero negro cautiva al cliente.	transp	cuero	4	1305	1
B40	D06_C4	Piensa que su crisis larga produce insomnio.	opaq	crisis	5	1221	1
B40	D31_C3	Menciona que el ma’z morado lidera las ventas.	opaq	ma’z	6	1574	1
B40	D32_C2	Indica que su revista c—mica divierte a todos.	transp	revista	7	1363	1
B40	D17_C1	Sugiere que el anillo rojo llama la atenci—n.	transp	anillo	8	2408	1
B40	D21_C1	Demuestra que el zapato caro resiste la lluvia.	transp	zapato	9	1300	0
B40	D23_C3	Avisa de que el metal sagrado tiene poderes m‡gicos.	opaq	metal	10	1461	1
B40	D01_C1	Dice que el colegio nuevo cuesta mucho dinero.	transp	colegio	11	1295	1
B40	D27_C3	Anuncia que el jard’n sucio disgusta al invitado.	opaq	jard’n	12	1938	1
B40	D11_C3	Indica que el hospital peque–o contrata a estudiantes.	opaq	hospital	13	1598	1
B40	D22_C4	Dice que su naci—n limpia recibe m‡s turistas.	opaq	naci—n	14	1367	1
B40	D20_C2	Sostiene que su taberna oscura necesita m‡s luz.	transp	taberna	15	2445	1
B40	D10_C4	Menciona que su nariz dorada causa sorpresa.	opaq	nariz	16	1266	1
B40	D16_C2	Aclara que su escuela pœbica trae problemas.	transp	escuea	17	1633	1
B40	D07_C3	Descubre que el borrador bueno vale menos dinero.	opaq	borrador	18	1362	1
B40	D28_C2	Opina que su novela tr‡gica divide al pueblo.	transp	novela	19	1483	1
B40	D25_C1	Comenta que el suelo blanco demanda mucho cuidado.	transp	suelo	20	1223	1
B40	D04_C2	Comenta que su silla rosada mejora la sala.	transp	silla	21	1400	1
B40	D02_C4	Avisa de que su conexi—n moderna repara el sistema.	opaq	conexi—n	22	1623	1
B40	D30_C4	Declara que su tradici—n rara confunde al rey.	opaq	tradici—n	23	1367	1
B40	D03_C3	Cree que el pastel t’pico lleva demasiados ingredientes.	opaq	pastel	24	1250	1
B40	D08_C2	Cuenta que su planta bonita gana el concurso.	transp	planta	25	1210	1
B40	D15_C3	Explica que el cintur—n mediano resulta m‡s pr‡ctico.	opaq	cintur—n	26	1401	1
B40	D18_C4	Manifiesta que su mansi—n preciosa sorprende al hombre.	opaq	mansi—n	27	1622	1
B40	D29_C1	Cuenta que el cuadro famoso representa su vida.	transp	cuadro	28	1486	1
B40	D24_C2	Cree que su cena mala decepciona al padre.	transp	cena	29	1255	1
B40	D12_C2	Aclara que su palabra secreta resuelve el misterio.	transp	palabra	30	1172	1
B40	D26_C4	Piensa que su religi—n estricta molesta al joven.	opaq	religi—n	31	1550	1
B40	D19_C3	Descubre que el paraguas barato soporta la lluvia.	opaq	paraguas	32	1626	1
B40	D05_C1	Anuncia que el palo roto crea m‡s basura.	transp	palo	33	1104	1
B41	PD_C4	Dice que la mochila rallada contiene nuestras cosas	transp	mochila	1	4726	1
B41	D25_C4	Comenta que su sill—n blanco demanda mucho cuidado.	opaq	sill—n	2	1361	1
B41	D18_C3	Manifiesta que la mansi—n preciosa sorprende al hombre.	opaq	mansi—n	3	1986	1
B41	D08_C1	Cuenta que la planta bonita gana el concurso.	transp	planta	4	1535	1
B41	D05_C4	Anuncia que su cristal roto crea m‡s basura.	opaq	cristal	5	1632	1
B41	D12_C1	Aclara que la palabra secreta resuelve el misterio.	transp	palabra	6	1647	1
B41	D20_C1	Sostiene que la taberna oscura necesita m‡s luz.	transp	taberna	7	1708	1
B41	D14_C3	Se–ala que la lecci—n perfecta requiere preparaci—n.	opaq	lecci—n	8	1519	1
B41	D17_C4	Sugiere que su pantal—n rojo llama la atenci—n.	opaq	pantal—n	9	1429	1
B41	D03_C2	Cree que su plato t’pico lleva demasiados ingredientes.	transp	plato	10	1564	1
B41	D32_C1	Indica que la revista c—mica divierte a todos.	transp	revista	11	1496	1
B41	D09_C4	Declara que su cami—n antiguo contamina el ambiente.	opaq	cami—n	12	1639	1
B41	D28_C1	Opina que la novela tr‡gica divide al pueblo.	transp	novela	13	1485	1
B41	D22_C3	Dice que la naci—n limpia recibe m‡s turistas.	opaq	naci—n	14	1393	1
B41	D13_C4	Opina que su collar negro cautiva al cliente.	opaq	collar	15	1246	1
B41	D24_C1	Cree que la cena mala decepciona al padre.	transp	cena	16	1253	1
B41	D15_C2	Explica que su tama–o mediano resulta m‡s pr‡ctico.	transp	tama–o	17	1960	1
B41	D11_C2	Indica que su mercado peque–o contrata a estudiantes.	transp	mercado	18	1673	1
B41	D26_C3	Piensa que la religi—n estricta molesta al joven.	opaq	religi—n	19	1576	1
B41	D23_C2	Avisa de que su templo sagrado tiene poderes m‡gicos.	transp	templo	20	1528	1
B41	D16_C1	Aclara que la escuela pœblica trae problemas.	transp	escuela	21	1365	1
B41	D29_C4	Cuenta que su lugar famoso representa su vida.	opaq	lugar	22	1389	0
B41	D19_C2	Descubre que su sombrero barato soporta la lluvia.	transp	sombrero	23	1665	1
B41	D04_C1	Comenta que la silla rosada mejora la sala.	transp	silla	24	1461	1
B41	D30_C3	Declara que la tradici—n rara confunde al rey.	opaq	tradici—n	25	1718	1
B41	D31_C2	Menciona que su bolso morado lidera las ventas.	transp	bolso	26	1783	1
B41	D01_C4	Dice que su proyector nuevo cuesta mucho dinero.	opaq	proyector	27	1683	1
B41	D02_C3	Avisa de que la conexi—n moderna repara el sistema.	opaq	conexi—n	28	1601	1
B41	D27_C2	Anuncia que su vaso sucio disgusta al invitado.	transp	vaso	29	1653	1
B41	D21_C4	Demuestra que su malet’n caro resiste la lluvia.	opaq	malet’n	30	1643	1
B41	D06_C3	Piensa que la crisis larga produce insomnio.	opaq	crisis	31	1380	1
B41	D10_C3	Menciona que la nariz dorada causa sorpresa.	opaq	nariz	32	1370	1
B41	D07_C2	Descubre que su teclado bueno vale menos dinero.	transp	teclado	33	1566	1
B44	PD_C4	Dice que la mochila rallada contiene nuestras cosas	transp	mochila	1	5002	1
B44	D13_C1	Opina que el cuero negro cautiva al cliente.	transp	cuero	2	1252	1
B44	D15_C3	Explica que el cintur—n mediano resulta m‡s pr‡ctico.	opaq	cintur—n	3	1692	1
B44	D27_C3	Anuncia que el jard’n sucio disgusta al invitado.	opaq	jard’n	4	1582	1
B44	D29_C1	Cuenta que el cuadro famoso representa su vida.	transp	cuadro	5	1619	1
B44	D03_C3	Cree que el pastel t’pico lleva demasiados ingredientes.	opaq	pastel	6	1452	1
B44	D09_C1	Declara que el carro antiguo contamina el ambiente.	transp	carro	7	1575	1
B44	D17_C1	Sugiere que el anillo rojo llama la atenci—n.	transp	anillo	8	1466	1
B44	D06_C4	Piensa que su crisis larga produce insomnio.	opaq	crisis	9	1464	1
B44	D23_C3	Avisa de que el metal sagrado tiene poderes m‡gicos.	opaq	metal	10	1843	1
B44	D25_C1	Comenta que el suelo blanco demanda mucho cuidado.	transp	suelo	11	1255	1
B44	D07_C3	Descubre que el borrador bueno vale menos dinero.	opaq	borrador	12	1469	1
B44	D20_C2	Sostiene que su taberna oscura necesita m‡s luz.	transp	taberna	13	1794	1
B44	D18_C4	Manifiesta que su mansi—n preciosa sorprende al hombre.	opaq	mansi—n	14	2356	1
B44	D26_C4	Piensa que su religi—n estricta molesta al joven.	opaq	religi—n	15	1863	1
